Block,Trial,Driving Power,Response Time (ms),Correct
1,1,3.2,1743.9225061805919,1
1,2,6.4,1665.140879044451,0
1,3,6.4,1498.5774030337827,0
1,4,3.2,1849.8424425706587,0
1,5,25.6,1201.1542488571115,1
1,6,6.4,1560.1733887645123,1
1,7,3.2,1828.9577004393389,1
1,8,6.4,1607.4817379894705,0
1,9,12.8,1366.4127674309648,0
1,10,25.6,1227.3931437045553,1
1,11,6.4,1518.909275307151,1
1,12,3.2,1775.9301514228914,1
1,13,6.4,1555.2261595197467,0
1,14,25.6,1128.9942648789147,1
1,15,6.4,1596.8229648814595,1
1,16,6.4,1506.1849393848734,1
1,17,12.8,1300.4609777578269,1
1,18,25.6,1209.5694408794109,1
1,19,6.4,1632.3616950632618,0
1,20,3.2,1770.9643211849082,0
1,21,3.2,1945.9182577151046,0
1,22,6.4,1579.3987563047183,0
1,23,6.4,1576.3183356488994,0
1,24,3.2,1795.5427186551628,1
1,25,3.2,1864.3338032609868,1
1,26,12.8,1321.6580628109327,1
1,27,12.8,1381.1002357030684,0
1,28,25.6,1290.693042930886,1
1,29,6.4,1656.1791986013752,1
1,30,6.4,1623.7539134953286,1
1,31,25.6,1173.0882194389364,1
1,32,6.4,1618.407462721938,1
1,33,6.4,1575.9437904723945,0
1,34,3.2,1802.2568805491346,0
1,35,25.6,1212.5146096499354,1
1,36,6.4,1541.7218150143462,0
1,37,6.4,1562.842244114623,1
1,38,25.6,1201.7207219666632,1
1,39,25.6,1280.5964801955445,1
1,40,12.8,1443.5806127989135,1
1,41,3.2,1724.8298791255904,0
1,42,3.2,1788.6435257551007,1
1,43,12.8,1405.7930706631118,1
1,44,3.2,1800.3655151046657,0
1,45,3.2,1776.61574252068,0
1,46,6.4,1597.8360194851311,0
1,47,6.4,1534.303134591482,0
1,48,3.2,1703.105365910195,0
1,49,12.8,1380.5537305147989,1
1,50,25.6,1197.5538124060574,0
1,51,25.6,1211.433191473059,0
1,52,25.6,1173.3490650802748,1
1,53,12.8,1408.574745630827,1
1,54,12.8,1475.1156866788572,1
1,55,25.6,1230.2906678165798,1
1,56,3.2,1795.546691280513,1
1,57,25.6,1208.2638187925222,1
1,58,12.8,1498.552821649118,0
1,59,3.2,1809.1961140611952,0
1,60,25.6,1244.3206415330544,1
1,61,12.8,1438.7893965019152,1
1,62,3.2,1692.7987424178702,0
1,63,3.2,1797.8621408232016,1
1,64,12.8,1423.2737642429404,0
1,65,6.4,1652.3489117777167,1
1,66,12.8,1409.2764847086676,0
1,67,6.4,1655.0262497418933,1
1,68,25.6,1208.9130639784607,1
1,69,6.4,1575.799220724332,0
1,70,25.6,1219.0447273635941,1
1,71,12.8,1339.2117461779512,1
1,72,12.8,1418.4895369836997,1
1,73,25.6,1127.037526040319,1
1,74,12.8,1366.9896141075596,1
1,75,12.8,1355.4090965979228,0
1,76,3.2,1791.3354112852721,0
1,77,25.6,1232.8457478723062,0
1,78,6.4,1525.0415982935647,1
1,79,25.6,1154.206600020491,1
1,80,6.4,1585.4723047065713,0
1,81,25.6,1112.459945325499,1
1,82,6.4,1643.1601864874779,1
1,83,3.2,1909.2677357787234,0
1,84,3.2,1800.2254497933857,1
1,85,25.6,1201.0940796663122,1
1,86,12.8,1353.2318237467416,1
1,87,3.2,1772.071962687437,1
1,88,25.6,1250.0955079230562,0
1,89,3.2,1877.8589966865625,0
1,90,12.8,1376.0590172551874,1
1,91,12.8,1355.7925257412614,0
1,92,6.4,1630.4540293232587,1
1,93,25.6,1148.1514740976554,1
1,94,25.6,1231.4806573772441,1
1,95,12.8,1436.6355687388505,1
1,96,3.2,1819.9428424879363,1
1,97,6.4,1562.5747333539769,1
1,98,3.2,1831.7837052892826,0
1,99,3.2,1785.6075994788473,1
1,100,25.6,1163.7699637315893,1
1,101,12.8,1378.6258371609017,0
1,102,25.6,1207.8537477351292,1
1,103,3.2,1819.520181471183,0
1,104,6.4,1549.323544738831,0
1,105,25.6,1221.538995639434,1
1,106,3.2,1762.453420570274,1
1,107,12.8,1407.3206237297866,1
1,108,6.4,1507.479802940044,1
1,109,3.2,1722.33160295427,1
1,110,3.2,1787.2683866399752,1
1,111,25.6,1176.3697406139836,1
1,112,25.6,1244.6581313580243,1
1,113,12.8,1394.8386525832184,1
1,114,12.8,1430.4684661981962,0
1,115,6.4,1614.1968595011551,1
1,116,6.4,1651.8723010279784,1
1,117,12.8,1422.5016168317034,1
1,118,12.8,1340.0007849552017,1
1,119,3.2,1690.1227495768073,0
1,120,25.6,1180.4678014398928,1
1,121,3.2,1805.9227393100705,0
1,122,12.8,1387.1669747143096,0
1,123,6.4,1547.7887595201887,1
1,124,3.2,1761.733126818915,0
1,125,6.4,1597.6080467587094,1
1,126,3.2,1892.7832712709835,0
1,127,12.8,1375.5647351667378,1
1,128,6.4,1588.4112378781801,0
1,129,12.8,1335.854767791137,1
1,130,6.4,1571.6342383386327,1
1,131,25.6,1176.7341613927333,1
1,132,25.6,1146.346329210124,1
1,133,6.4,1654.7239947542218,1
1,134,3.2,1897.7959410299216,0
1,135,6.4,1584.934931864316,1
1,136,3.2,1804.92409242205,1
1,137,12.8,1314.241929547938,1
1,138,6.4,1566.112959104246,1
1,139,6.4,1620.827857097362,0
1,140,6.4,1675.8915277864266,1
1,141,25.6,1188.6707806911338,1
1,142,25.6,1247.9485305864341,1
1,143,12.8,1520.3155234194724,0
1,144,3.2,1804.830284703107,0
1,145,3.2,1818.176951215466,0
1,146,12.8,1418.5361670116806,0
1,147,6.4,1549.3173419321931,1
1,148,12.8,1496.9645468614508,1
1,149,12.8,1348.6472704531582,1
1,150,6.4,1590.3460933997067,1
1,151,6.4,1641.531226325907,1
1,152,3.2,1820.2620700097896,1
1,153,12.8,1392.859056670511,0
1,154,3.2,1773.6004238294167,0
1,155,6.4,1654.0105871268236,0
1,156,12.8,1389.5312282866341,1
1,157,25.6,1104.8634666483672,1
1,158,12.8,1347.7801579002305,1
1,159,3.2,1724.66832320958,1
1,160,6.4,1565.2056224670566,1
1,161,25.6,1236.6172371007876,1
1,162,3.2,1849.4758121525986,1
1,163,3.2,1829.5447820335744,0
1,164,6.4,1581.0373571208577,1
1,165,12.8,1418.6252682670909,1
1,166,25.6,1236.7173138434994,1
1,167,3.2,1815.1619891212479,1
1,168,3.2,1749.9550933904923,0
1,169,25.6,1203.2940842249252,1
1,170,25.6,1217.1393793587213,1
1,171,6.4,1646.0412722804663,1
1,172,3.2,1821.4911163738388,1
1,173,12.8,1357.410300554006,0
1,174,6.4,1558.6675882454836,0
1,175,3.2,1835.6317397842329,1
1,176,25.6,1145.8558869762862,1
1,177,6.4,1610.4826326025102,1
1,178,6.4,1619.306569900213,1
1,179,25.6,1157.3299012262748,1
1,180,12.8,1352.8422444974694,1
1,181,6.4,1612.9617339663414,1
1,182,12.8,1447.0708748894722,0
1,183,6.4,1674.0612407822873,0
1,184,12.8,1413.5969675728977,1
1,185,3.2,1745.8957237107682,0
1,186,25.6,1261.3198931528273,0
1,187,12.8,1379.8476629538484,1
1,188,12.8,1396.8790128379628,1
1,189,12.8,1359.496610310361,1
1,190,6.4,1543.5955449959806,1
1,191,25.6,1168.5608427262198,1
1,192,12.8,1368.1348465713963,1
1,193,3.2,1777.1500501116432,0
1,194,6.4,1499.1966349836814,1
1,195,6.4,1592.8572581734063,0
1,196,6.4,1594.2099989351366,0
1,197,6.4,1627.077704370155,1
1,198,6.4,1570.3955237587957,1
1,199,12.8,1354.9655133829515,1
1,200,3.2,1772.9505629655193,0
2,1,12.8,1391.2993873421328,0
2,2,12.8,1420.8092079999349,1
2,3,12.8,1350.3463495668932,0
2,4,3.2,1835.0625029691307,1
2,5,6.4,1548.849825405321,0
2,6,25.6,1265.9744876190011,1
2,7,25.6,1215.3700273934182,1
2,8,6.4,1580.2615199041547,1
2,9,12.8,1354.647690671846,0
2,10,25.6,1232.8136909312957,1
2,11,25.6,1211.0425173109934,1
2,12,25.6,1296.8671866156747,0
2,13,12.8,1419.783230736453,1
2,14,6.4,1605.7932847896748,0
2,15,6.4,1538.719696606723,1
2,16,3.2,1836.285363068555,0
2,17,25.6,1225.7353763435215,1
2,18,6.4,1534.0313765612282,1
2,19,12.8,1360.2475093218795,1
2,20,25.6,1229.5039473321995,1
2,21,6.4,1675.6325080249253,0
2,22,3.2,1821.5517099644685,1
2,23,12.8,1382.1783641533166,1
2,24,3.2,1719.4299186288847,1
2,25,12.8,1437.6640988889446,1
2,26,6.4,1570.74844798492,0
2,27,3.2,1792.4701948574425,1
2,28,6.4,1619.8792597754327,1
2,29,12.8,1465.1672454597028,0
2,30,12.8,1449.7373897009988,1
2,31,3.2,1790.3220313938461,1
2,32,6.4,1642.686407967139,1
2,33,25.6,1253.4741426644273,1
2,34,3.2,1723.7860215198764,0
2,35,12.8,1419.62021804483,1
2,36,3.2,1775.8906512936574,0
2,37,25.6,1173.0802399620698,1
2,38,6.4,1648.8815482588882,1
2,39,3.2,1803.246159788594,0
2,40,25.6,1161.479300258161,1
2,41,25.6,1307.762912598264,1
2,42,3.2,1833.6135783226732,1
2,43,3.2,1789.4077288306323,1
2,44,25.6,1218.991975764073,1
2,45,12.8,1392.7170894573756,1
2,46,3.2,1928.6918154398702,1
2,47,6.4,1486.6641997359798,1
2,48,12.8,1354.6347169777366,1
2,49,25.6,1239.4030872234314,1
2,50,12.8,1383.5165119528974,1
2,51,3.2,1805.4022717324895,1
2,52,12.8,1405.3237506293135,1
2,53,25.6,1155.3544229764207,1
2,54,12.8,1444.0404834996707,1
2,55,25.6,1221.4077397077308,1
2,56,3.2,1804.4863316527553,0
2,57,25.6,1355.0232926574504,1
2,58,12.8,1327.9256784090956,1
2,59,3.2,1732.3885038133644,1
2,60,12.8,1423.304256611363,1
2,61,12.8,1352.0894904470852,1
2,62,3.2,1803.6531622058883,1
2,63,6.4,1544.1794496598136,1
2,64,12.8,1381.260247645652,1
2,65,3.2,1714.6903799612483,0
2,66,6.4,1553.4282146521787,1
2,67,12.8,1459.8327497103612,1
2,68,25.6,1216.7608215952337,1
2,69,3.2,1787.4616061620716,0
2,70,25.6,1287.8319137883184,1
2,71,6.4,1513.820382208212,1
2,72,12.8,1369.497840367063,1
2,73,25.6,1170.338679328556,1
2,74,12.8,1429.0373804064977,1
2,75,3.2,1778.109991732273,0
2,76,12.8,1323.4244858062555,1
2,77,6.4,1603.9937843105483,0
2,78,3.2,1818.3772054904227,1
2,79,12.8,1369.595243874012,1
2,80,6.4,1634.884073071917,1
2,81,3.2,1710.6935916871398,0
2,82,3.2,1750.0607251197368,0
2,83,25.6,1247.6241832551684,1
2,84,3.2,1700.3108854113448,0
2,85,12.8,1377.3284874069416,1
2,86,3.2,1775.207396772029,0
2,87,12.8,1311.8266830139808,0
2,88,25.6,1212.3181987618493,1
2,89,25.6,1096.6031988902305,1
2,90,12.8,1377.7428521310246,1
2,91,3.2,1678.763959591393,1
2,92,3.2,1757.5097958760189,1
2,93,25.6,1222.6481694485024,1
2,94,6.4,1578.409348455876,1
2,95,12.8,1418.7914698154702,1
2,96,6.4,1560.1594183256266,0
2,97,12.8,1446.2510241089194,1
2,98,12.8,1375.4172547792327,1
2,99,3.2,1839.7006207558932,0
2,100,25.6,1148.9179074882163,1
2,101,25.6,1231.1674479749615,1
2,102,25.6,1196.4939092577995,1
2,103,12.8,1382.830568879817,1
2,104,25.6,1205.905505261352,0
2,105,25.6,1135.853609646433,1
2,106,25.6,1286.8090999937158,0
2,107,6.4,1552.7889505513695,1
2,108,25.6,1216.2412315164386,0
2,109,6.4,1565.1727139153725,1
2,110,12.8,1374.732739277174,0
2,111,12.8,1403.5800017857864,0
2,112,3.2,1813.9289429930375,1
2,113,12.8,1375.7596155817905,1
2,114,12.8,1403.3311853390685,0
2,115,25.6,1137.436479928676,1
2,116,3.2,1741.3893612495633,1
2,117,3.2,1808.5528296407633,1
2,118,12.8,1520.5473652119965,1
2,119,25.6,1228.2608394347205,0
2,120,6.4,1638.7200826994708,1
2,121,12.8,1320.8733305013159,1
2,122,6.4,1556.878226854309,0
2,123,12.8,1347.246047993954,1
2,124,3.2,1846.5041175364722,0
2,125,12.8,1438.9024078093355,1
2,126,25.6,1318.0621831365816,1
2,127,3.2,1880.011677174598,1
2,128,6.4,1553.1684246706027,1
2,129,25.6,1166.206141205326,1
2,130,6.4,1606.4904014032754,1
2,131,12.8,1353.467259465737,1
2,132,6.4,1578.8209681287824,1
2,133,25.6,1214.698599576126,1
2,134,25.6,1166.5485013055734,1
2,135,25.6,1256.873784752428,1
2,136,6.4,1645.276949683933,1
2,137,12.8,1390.4172717791516,0
2,138,12.8,1409.015600708722,1
2,139,3.2,1809.887573660847,1
2,140,3.2,1818.1085397223544,0
2,141,6.4,1618.411215341599,1
2,142,3.2,1786.0066657869613,0
2,143,3.2,1808.9467327718762,1
2,144,12.8,1408.9579806719448,1
2,145,3.2,1761.3576031013065,1
2,146,12.8,1457.3951011749002,1
2,147,6.4,1651.351466101503,1
2,148,25.6,1145.6887684947717,1
2,149,3.2,1777.882913100305,0
2,150,25.6,1187.8567028440043,1
2,151,12.8,1422.48238001017,1
2,152,3.2,1793.452224646828,0
2,153,3.2,1816.0992867725595,0
2,154,25.6,1244.1841984081566,1
2,155,25.6,1220.3159395362063,1
2,156,25.6,1188.5924285370854,1
2,157,12.8,1382.723053682858,1
2,158,25.6,1196.4438022406616,1
2,159,6.4,1580.9757026412703,1
2,160,12.8,1286.7351170754932,1
2,161,3.2,1736.0103205463722,0
2,162,12.8,1393.9391679059502,1
2,163,3.2,1771.495291185477,1
2,164,25.6,1240.739964582901,1
2,165,3.2,1803.9646923685941,0
2,166,6.4,1597.488723297325,1
2,167,12.8,1362.0223443491498,1
2,168,6.4,1513.8264058460013,1
2,169,3.2,1874.0374684063856,0
2,170,6.4,1617.9615391409773,0
2,171,12.8,1378.153495736637,1
2,172,25.6,1232.6167721668876,1
2,173,12.8,1455.590857918349,1
2,174,25.6,1256.407524374736,1
2,175,25.6,1213.3280839823863,0
2,176,12.8,1386.4451172710044,1
2,177,6.4,1665.2832777553735,1
2,178,6.4,1620.7045417236452,0
2,179,12.8,1363.653975388078,1
2,180,3.2,1820.87190428445,1
2,181,6.4,1606.7145966740406,0
2,182,3.2,1810.1001225909658,1
2,183,25.6,1149.2523640698976,0
2,184,25.6,1137.0082410761058,1
2,185,12.8,1403.2998900531832,1
2,186,3.2,1738.1663917270532,1
2,187,25.6,1277.2944794148543,1
2,188,6.4,1586.7072370433325,0
2,189,6.4,1585.2048175322168,1
2,190,3.2,1712.6176300827126,0
2,191,6.4,1617.6768578591398,1
2,192,6.4,1573.1204874819791,1
2,193,3.2,1846.1066523631553,0
2,194,12.8,1364.2779605350204,1
2,195,3.2,1801.7755979390924,1
2,196,6.4,1614.4452095627676,0
2,197,6.4,1593.247496898598,1
2,198,6.4,1564.8650713215789,0
2,199,12.8,1503.2763570811003,0
2,200,6.4,1617.9393300605066,0
3,1,25.6,795.4850352427704,1
3,2,25.6,670.1751500889648,1
3,3,25.6,725.509757320606,1
3,4,3.2,1526.7665397410046,0
3,5,25.6,739.2779027978788,1
3,6,6.4,1390.9413265777118,1
3,7,3.2,1426.7141362041154,0
3,8,3.2,1430.7876510626993,1
3,9,12.8,980.2294584673027,1
3,10,12.8,1016.2544477841049,1
3,11,25.6,716.5184153824988,1
3,12,3.2,1511.7122114101842,1
3,13,6.4,1216.3806802884833,1
3,14,25.6,760.2390806793474,1
3,15,6.4,1379.3331786029846,1
3,16,6.4,1239.5605756749417,1
3,17,12.8,1007.080845440306,1
3,18,25.6,782.9861341037838,1
3,19,6.4,1366.3766845141959,1
3,20,25.6,668.1104803295576,1
3,21,12.8,960.8824800031603,1
3,22,12.8,1062.0835639225743,1
3,23,3.2,1471.8451636763598,1
3,24,25.6,748.2338527947701,0
3,25,3.2,1428.6863766564632,1
3,26,3.2,1501.1709205033105,0
3,27,25.6,702.4958971367118,1
3,28,12.8,1012.5831998414565,1
3,29,6.4,1357.632553820387,1
3,30,3.2,1470.644784838285,1
3,31,12.8,992.9440832930186,1
3,32,6.4,1261.1041640733963,1
3,33,3.2,1585.6591152799501,1
3,34,3.2,1514.1808940910903,0
3,35,3.2,1511.810705855446,0
3,36,6.4,1278.0163404858997,1
3,37,3.2,1583.8263717522009,1
3,38,12.8,974.6574459011623,1
3,39,25.6,696.6736578883365,1
3,40,25.6,789.1365647997603,1
3,41,6.4,1314.6910717451105,1
3,42,3.2,1574.9959872020727,1
3,43,12.8,1088.9910249403915,1
3,44,3.2,1443.0928651196439,1
3,45,3.2,1475.648937986297,1
3,46,25.6,762.2344643761517,1
3,47,25.6,757.7106015544335,1
3,48,12.8,987.6580228415078,0
3,49,3.2,1477.2562044376134,1
3,50,3.2,1510.0887622198388,1
3,51,6.4,1255.5231702194683,1
3,52,12.8,956.8586606173994,1
3,53,25.6,805.3215904363593,1
3,54,12.8,1002.9761224682486,1
3,55,6.4,1368.6050773732618,1
3,56,3.2,1512.6900854923729,1
3,57,3.2,1533.1268281319801,1
3,58,12.8,964.3943205396444,1
3,59,6.4,1381.8435429875194,1
3,60,25.6,801.852510890355,1
3,61,6.4,1343.6808132126714,1
3,62,25.6,722.5016500259134,1
3,63,3.2,1485.1447782865878,1
3,64,12.8,1015.0127203733186,1
3,65,25.6,774.1425627946277,1
3,66,6.4,1383.852511426339,0
3,67,6.4,1313.3978149737243,0
3,68,25.6,727.4589521204241,1
3,69,6.4,1330.3933908589458,0
3,70,6.4,1408.259962793029,0
3,71,6.4,1360.355789234276,1
3,72,3.2,1459.2662466247607,1
3,73,12.8,1001.4352080393145,1
3,74,6.4,1346.0756605060815,0
3,75,25.6,778.5473682331532,1
3,76,25.6,768.3791297994019,1
3,77,12.8,964.3840679108955,1
3,78,3.2,1465.1534712745236,0
3,79,25.6,698.917493185799,1
3,80,6.4,1328.7110542641672,1
3,81,3.2,1474.6755242139427,1
3,82,3.2,1379.3071604639508,1
3,83,3.2,1466.1562691227446,0
3,84,25.6,668.6147197176863,1
3,85,12.8,1054.3369587808631,1
3,86,3.2,1500.9361022440632,1
3,87,6.4,1436.5480035761325,1
3,88,12.8,960.7080291598628,0
3,89,12.8,887.3919480793409,1
3,90,3.2,1441.9978400783152,1
3,91,12.8,1026.7211745252357,1
3,92,12.8,1019.8118536686138,1
3,93,3.2,1440.0467413695003,0
3,94,25.6,773.9424541186797,1
3,95,12.8,1018.6462399210859,1
3,96,25.6,892.648348541318,1
3,97,3.2,1516.383537685317,1
3,98,12.8,956.6953474390845,1
3,99,12.8,985.4361007337883,1
3,100,3.2,1510.4722927491143,0
3,101,3.2,1492.0103323440524,0
3,102,12.8,891.7741109758616,1
3,103,12.8,926.3277275759353,1
3,104,25.6,695.317429755356,1
3,105,6.4,1325.4914914624674,0
3,106,3.2,1475.8764011644607,1
3,107,3.2,1411.725631713545,1
3,108,12.8,994.0016247812603,1
3,109,12.8,1050.818562502471,1
3,110,6.4,1388.2675932574384,0
3,111,25.6,742.4448422487368,1
3,112,6.4,1337.3190931703969,0
3,113,6.4,1283.8435198185962,1
3,114,3.2,1486.870859395898,1
3,115,12.8,962.2678700292422,1
3,116,25.6,739.0722644616397,1
3,117,12.8,1042.6018268841437,1
3,118,12.8,1136.435682334448,1
3,119,3.2,1525.0870158220127,0
3,120,6.4,1319.9750843896531,1
3,121,12.8,960.6181545656195,1
3,122,12.8,1045.7208934474336,1
3,123,12.8,932.7477396665604,1
3,124,6.4,1290.606376995799,1
3,125,6.4,1404.0533814209468,0
3,126,6.4,1348.4779784341806,0
3,127,12.8,1048.8019133707767,1
3,128,12.8,981.7997566256603,1
3,129,3.2,1494.4058660176802,0
3,130,25.6,751.8804881340327,1
3,131,25.6,808.7283696838979,1
3,132,6.4,1308.1790212993908,0
3,133,3.2,1402.6319165077462,0
3,134,6.4,1382.7997238083183,1
3,135,25.6,717.6475501014303,1
3,136,3.2,1493.4157028019874,1
3,137,6.4,1313.3707339773782,1
3,138,3.2,1523.186075327687,1
3,139,12.8,1063.2486987554687,1
3,140,12.8,1058.4148982620998,1
3,141,6.4,1355.2421646939874,0
3,142,6.4,1393.0636907042967,0
3,143,25.6,758.1580038414334,1
3,144,12.8,924.7355139900365,1
3,145,3.2,1391.518273316677,1
3,146,12.8,1004.8422524454318,1
3,147,12.8,895.590273137188,1
3,148,12.8,985.995142159708,1
3,149,12.8,953.5119898652945,1
3,150,3.2,1551.729621969717,1
3,151,3.2,1546.3590004123384,0
3,152,12.8,991.4266447401416,1
3,153,12.8,1092.9781905757284,1
3,154,25.6,782.3269129704311,1
3,155,3.2,1464.97541235653,1
3,156,25.6,701.0241154606732,1
3,157,25.6,755.9290319652828,1
3,158,6.4,1466.581461090097,1
3,159,6.4,1352.2735522793066,0
3,160,12.8,1009.7911120002223,1
3,161,6.4,1346.5356358743288,1
3,162,12.8,922.6474344809345,1
3,163,25.6,765.5502421864799,1
3,164,12.8,953.6454296907439,1
3,165,6.4,1400.1938638814702,0
3,166,12.8,1031.720675107017,1
3,167,12.8,1085.8270736496138,1
3,168,3.2,1567.3230092364913,0
3,169,25.6,709.141331406768,1
3,170,25.6,823.2224310851808,1
3,171,3.2,1507.2529784960914,0
3,172,25.6,740.559194669787,0
3,173,12.8,1096.9618168551629,0
3,174,25.6,783.6689667967481,1
3,175,6.4,1308.1730341972652,1
3,176,3.2,1432.3950289278714,1
3,177,12.8,997.4614053539426,1
3,178,3.2,1477.975110198274,1
3,179,25.6,744.0591935937404,1
3,180,3.2,1511.682022873843,1
3,181,12.8,992.6788399507558,1
3,182,12.8,998.5922994020964,1
3,183,25.6,767.99874854412,1
3,184,25.6,737.3782731874219,0
3,185,6.4,1328.0910078259021,1
3,186,3.2,1580.7977310235963,0
3,187,12.8,1044.8605704497477,1
3,188,3.2,1402.7702309458675,0
3,189,3.2,1532.9515682845483,0
3,190,12.8,1000.0871387036075,1
3,191,12.8,969.1321390466519,1
3,192,3.2,1610.186687433196,1
3,193,12.8,991.4039806575845,1
3,194,6.4,1286.529972127258,1
3,195,3.2,1450.337498611936,1
3,196,25.6,786.7967661038963,1
3,197,3.2,1492.9684935395846,1
3,198,6.4,1368.0891366919159,1
3,199,3.2,1555.7155394486635,0
3,200,3.2,1531.5273233054431,1
4,1,25.6,803.9135300968761,1
4,2,12.8,978.054697252956,1
4,3,6.4,1349.0114951134701,1
4,4,25.6,704.9271646279974,1
4,5,3.2,1523.4384489779334,1
4,6,25.6,712.9629126437763,0
4,7,6.4,1426.1132504998934,1
4,8,25.6,746.8763921669803,0
4,9,6.4,1364.049679660097,1
4,10,12.8,1026.79025631241,0
4,11,12.8,1026.020789825623,1
4,12,6.4,1336.351963360893,0
4,13,12.8,988.6940605810081,1
4,14,25.6,800.8899946842803,1
4,15,6.4,1401.6511640739923,1
4,16,3.2,1524.2460975216218,1
4,17,6.4,1400.1623542515435,0
4,18,12.8,978.6946549733105,1
4,19,12.8,970.2032362280636,1
4,20,3.2,1453.641425174272,1
4,21,12.8,1046.5226416227429,1
4,22,6.4,1347.356543503847,1
4,23,3.2,1529.2184987631779,1
4,24,12.8,980.3760800674352,1
4,25,6.4,1409.2764057530894,0
4,26,25.6,763.283094296907,1
4,27,6.4,1299.5109293983026,0
4,28,3.2,1514.3532039516456,1
4,29,25.6,644.940709165173,1
4,30,6.4,1336.1255209839974,1
4,31,6.4,1350.5095347948343,1
4,32,25.6,763.1422567072262,1
4,33,12.8,976.4765948430008,1
4,34,25.6,771.9105813580211,0
4,35,25.6,750.3907384815917,1
4,36,3.2,1537.865940240975,1
4,37,12.8,977.5229606626937,1
4,38,3.2,1579.40863922863,1
4,39,25.6,689.1453475279715,1
4,40,3.2,1532.4696951454196,1
4,41,6.4,1370.6853697257384,1
4,42,3.2,1558.3484635362709,1
4,43,3.2,1439.1272817044562,1
4,44,12.8,965.3756883835196,1
4,45,3.2,1491.4584018726446,1
4,46,25.6,787.700380054961,1
4,47,25.6,737.2037021382397,1
4,48,3.2,1515.1297941172036,1
4,49,25.6,852.2905239668733,1
4,50,6.4,1390.6503846400092,1
4,51,3.2,1387.286075328193,0
4,52,6.4,1438.1917299230183,1
4,53,12.8,960.3079587786243,1
4,54,3.2,1547.428910789116,1
4,55,3.2,1428.9041317742622,1
4,56,3.2,1457.8762330943305,1
4,57,12.8,1032.1148372934272,0
4,58,6.4,1381.189480699811,1
4,59,12.8,965.487398258773,1
4,60,3.2,1552.401421384087,1
4,61,12.8,1045.4571580263057,1
4,62,25.6,785.2729406362917,0
4,63,3.2,1536.2618011091722,1
4,64,12.8,1078.5202480001929,1
4,65,12.8,1002.4767475402061,1
4,66,12.8,941.7902420103414,1
4,67,6.4,1263.6633802896254,1
4,68,12.8,934.4045081780447,1
4,69,12.8,981.8409807504136,1
4,70,12.8,1010.8383427179729,1
4,71,12.8,989.8781710887222,1
4,72,6.4,1372.9885804783285,1
4,73,12.8,986.4864039516102,1
4,74,3.2,1540.6744408088464,1
4,75,6.4,1371.369147837248,1
4,76,3.2,1447.9120940684893,1
4,77,3.2,1464.2402335598013,1
4,78,3.2,1494.4750475190324,1
4,79,25.6,752.1204680997431,1
4,80,12.8,955.7407954376939,1
4,81,12.8,987.7019681866259,1
4,82,3.2,1509.1849062812319,0
4,83,3.2,1547.9690331402337,1
4,84,3.2,1470.9418847646687,1
4,85,3.2,1488.4174426569905,0
4,86,12.8,995.473948107412,1
4,87,12.8,991.3808012879151,1
4,88,12.8,925.485959238817,1
4,89,12.8,1005.5750347692917,0
4,90,3.2,1454.294624896971,1
4,91,25.6,831.6380648139558,1
4,92,12.8,921.15987609175,1
4,93,6.4,1355.9325428444306,0
4,94,6.4,1381.0522517917645,1
4,95,12.8,861.3841284850854,1
4,96,12.8,1059.3232179678564,0
4,97,3.2,1545.6415262914697,1
4,98,25.6,810.4665015125508,1
4,99,12.8,981.2533769247435,1
4,100,6.4,1418.1948768280688,1
4,101,6.4,1409.4392367378075,1
4,102,6.4,1348.4180329840017,1
4,103,6.4,1404.3176837246717,0
4,104,12.8,988.4814568426062,1
4,105,25.6,729.6464469348585,1
4,106,12.8,1005.0203530354344,1
4,107,6.4,1326.8497601801384,1
4,108,6.4,1323.107629565269,1
4,109,25.6,808.0189069193091,1
4,110,6.4,1354.1484914565758,1
4,111,6.4,1368.2800943963437,1
4,112,3.2,1441.5421094676747,1
4,113,25.6,716.6314626409686,1
4,114,6.4,1384.2291508798971,1
4,115,25.6,763.5943326701134,1
4,116,25.6,839.2075575272806,0
4,117,6.4,1332.6493819987056,1
4,118,3.2,1353.4299443999498,0
4,119,3.2,1457.0595772097477,0
4,120,25.6,593.2802669579187,1
4,121,25.6,699.5621264973048,1
4,122,25.6,781.8219309017599,1
4,123,12.8,942.2497691409391,1
4,124,6.4,1319.7147233484266,1
4,125,12.8,983.9464690589249,1
4,126,25.6,663.4213239088058,1
4,127,6.4,1405.1183573259543,1
4,128,12.8,993.9727041445768,1
4,129,3.2,1468.431260386525,1
4,130,12.8,960.5631706038195,1
4,131,3.2,1506.0909374428077,0
4,132,6.4,1304.9875232582058,1
4,133,6.4,1384.0508557732576,1
4,134,12.8,925.2034119991964,1
4,135,12.8,1028.861832390955,1
4,136,25.6,751.2043004209523,1
4,137,6.4,1296.7447027266337,0
4,138,12.8,1098.8329427895944,1
4,139,3.2,1495.3757996649272,0
4,140,6.4,1332.8331564313523,1
4,141,12.8,982.5625567694216,1
4,142,25.6,729.3612074779651,1
4,143,25.6,803.7797491485427,1
4,144,6.4,1338.409836017109,1
4,145,6.4,1301.3831858473234,1
4,146,25.6,668.4638483603643,1
4,147,3.2,1343.6008114372619,1
4,148,25.6,712.3522081137279,1
4,149,6.4,1344.0163160826964,1
4,150,3.2,1540.8639523119432,1
4,151,25.6,739.9472546896247,1
4,152,25.6,764.1299664381771,1
4,153,12.8,962.1582221133531,1
4,154,3.2,1560.9424927758087,1
4,155,6.4,1350.8932621535619,1
4,156,25.6,714.7333098894659,1
4,157,3.2,1512.5173377562392,1
4,158,3.2,1537.1115487396944,1
4,159,12.8,1048.2578945743933,1
4,160,25.6,723.5715039769952,1
4,161,12.8,1009.3484967325865,1
4,162,25.6,783.8673598544663,1
4,163,12.8,1023.4774131079346,1
4,164,12.8,1023.4012299322644,1
4,165,25.6,703.8755941518878,1
4,166,6.4,1282.504458079497,1
4,167,6.4,1327.9672256330437,1
4,168,6.4,1336.1045924912212,1
4,169,6.4,1403.1581564174303,1
4,170,6.4,1380.154295962903,1
4,171,12.8,1187.6422960435289,1
4,172,6.4,1348.5192112469279,0
4,173,12.8,936.3253322627337,1
4,174,25.6,739.0938239263261,0
4,175,3.2,1456.48567176259,1
4,176,12.8,996.0403488840545,1
4,177,12.8,947.9479754294687,1
4,178,25.6,767.575820032164,1
4,179,6.4,1416.7334183936189,0
4,180,25.6,750.4974757230892,1
4,181,25.6,781.9349614346786,1
4,182,25.6,802.4587300252763,1
4,183,3.2,1441.6364677810388,1
4,184,3.2,1437.4250300086237,0
4,185,12.8,1010.1333809048247,1
4,186,25.6,624.4408207921374,1
4,187,25.6,758.7707666244659,1
4,188,6.4,1338.8589454204619,1
4,189,6.4,1321.1864136205713,1
4,190,3.2,1536.2056228180563,1
4,191,3.2,1490.5284705912363,0
4,192,6.4,1357.0888598516005,1
4,193,25.6,758.8243922246469,1
4,194,3.2,1478.2556180310146,1
4,195,3.2,1511.705411984578,1
4,196,3.2,1495.3745048375006,1
4,197,6.4,1293.9694653378265,1
4,198,25.6,751.3796684455128,1
4,199,12.8,970.6536067207122,1
4,200,6.4,1365.7324741180157,0
5,1,6.4,1375.1717158830443,1
5,2,6.4,1411.850593742593,1
5,3,6.4,1363.8612257862064,1
5,4,25.6,734.5467094286065,1
5,5,6.4,1265.5733973852452,1
5,6,3.2,1476.5041123058309,1
5,7,6.4,1335.0514236645208,0
5,8,25.6,785.460788002187,1
5,9,3.2,1510.149000073762,1
5,10,12.8,960.840180808191,1
5,11,12.8,971.5524461395224,1
5,12,12.8,1002.8464232478292,1
5,13,3.2,1492.171644281819,0
5,14,3.2,1499.8994410321002,1
5,15,25.6,695.8343488821347,1
5,16,12.8,1041.3429747134574,1
5,17,6.4,1295.1393273129017,0
5,18,25.6,747.0322630676101,1
5,19,3.2,1405.5054257693305,1
5,20,12.8,993.4906908105787,1
5,21,3.2,1474.7983335040217,1
5,22,6.4,1363.8989411777793,1
5,23,25.6,751.7753028832833,1
5,24,12.8,1009.5253256862003,1
5,25,3.2,1494.3882715929356,1
5,26,12.8,1015.5553088474397,1
5,27,25.6,745.0766822408995,1
5,28,12.8,982.6642431574795,1
5,29,3.2,1493.249227620759,1
5,30,3.2,1494.0319344231657,0
5,31,3.2,1595.1195394665851,1
5,32,12.8,908.1873585965533,1
5,33,12.8,992.4674226869006,1
5,34,3.2,1440.3489257066249,1
5,35,6.4,1377.5381617125418,1
5,36,12.8,1029.7132477298314,1
5,37,6.4,1357.1311135502262,1
5,38,25.6,790.2980621503517,1
5,39,12.8,991.4060842042928,1
5,40,6.4,1337.0149685452989,1
5,41,12.8,1002.3082368958515,1
5,42,25.6,738.3992895595119,1
5,43,12.8,926.9805152689379,0
5,44,12.8,1077.4780144213496,1
5,45,12.8,1075.5869444217724,0
5,46,3.2,1505.7714466497755,0
5,47,6.4,1306.9007441930657,1
5,48,12.8,1031.5772379067582,1
5,49,3.2,1525.7027264438466,1
5,50,25.6,742.8528343175068,1
5,51,3.2,1510.5036165386005,0
5,52,6.4,1288.74445757458,0
5,53,12.8,1024.09662657085,1
5,54,12.8,1010.5416793540885,0
5,55,25.6,754.5974935500933,1
5,56,25.6,762.9272339414963,1
5,57,3.2,1537.1354510478052,0
5,58,3.2,1481.822131145318,1
5,59,25.6,727.1875578656624,1
5,60,6.4,1305.8765173655806,1
5,61,3.2,1618.0794869837175,1
5,62,12.8,1034.7628457519386,1
5,63,12.8,909.7887340821874,1
5,64,6.4,1328.3893095182377,1
5,65,3.2,1562.0771531558805,1
5,66,25.6,790.6890077523008,1
5,67,12.8,1021.2885263396693,1
5,68,6.4,1314.2705557235827,1
5,69,12.8,950.7749346640611,1
5,70,6.4,1264.2973398782565,1
5,71,12.8,895.341366643278,1
5,72,6.4,1357.0234558034824,0
5,73,12.8,1023.4560188225753,1
5,74,12.8,995.6720514673133,1
5,75,12.8,958.0672636788784,1
5,76,6.4,1345.1435082434132,0
5,77,12.8,1017.8140192414543,1
5,78,12.8,897.9134508066045,1
5,79,3.2,1584.221011112193,0
5,80,25.6,843.2088022021981,1
5,81,25.6,710.7073096936442,1
5,82,6.4,1329.3225643549974,1
5,83,25.6,916.5579026682368,1
5,84,12.8,977.4890171969279,1
5,85,6.4,1356.531850953295,1
5,86,25.6,781.8704085765585,1
5,87,6.4,1344.9765435772672,0
5,88,6.4,1442.2251133865564,1
5,89,12.8,948.221082722923,1
5,90,25.6,718.0846043580365,1
5,91,3.2,1390.0646338012907,1
5,92,6.4,1313.7184987988983,1
5,93,3.2,1518.6846679193698,1
5,94,3.2,1499.4580468970187,1
5,95,25.6,698.1106575385442,1
5,96,3.2,1453.4643030535437,1
5,97,12.8,912.7245774873929,1
5,98,3.2,1517.5163736469945,0
5,99,12.8,1026.760450423587,1
5,100,25.6,688.1817862545622,1
5,101,12.8,999.0326938211766,0
5,102,25.6,723.7577283393302,1
5,103,25.6,755.5396903718652,1
5,104,25.6,740.923770470313,1
5,105,6.4,1279.2450105103244,1
5,106,12.8,1037.260183674175,1
5,107,25.6,703.5936497417539,0
5,108,25.6,717.3610869596553,1
5,109,6.4,1333.038726167881,1
5,110,25.6,640.1027739240861,1
5,111,25.6,706.9893140065622,1
5,112,6.4,1340.1053514702576,1
5,113,25.6,796.547805818617,1
5,114,25.6,759.8305726216073,1
5,115,6.4,1346.1060445227474,1
5,116,25.6,762.5768411611389,1
5,117,6.4,1383.7614274967877,1
5,118,12.8,978.0092861593782,1
5,119,12.8,1118.8882214005973,1
5,120,12.8,979.1951749307073,1
5,121,6.4,1256.8975684843979,1
5,122,3.2,1541.7556057922288,0
5,123,12.8,985.656792922856,1
5,124,6.4,1287.353240864759,1
5,125,6.4,1324.8655664240107,0
5,126,12.8,948.632718167474,1
5,127,6.4,1320.7215617381253,1
5,128,25.6,842.3113223995082,1
5,129,3.2,1476.8678805423672,1
5,130,6.4,1447.0572361314557,1
5,131,3.2,1453.7291163615757,1
5,132,25.6,854.8628934552017,1
5,133,6.4,1329.0022930941875,0
5,134,25.6,706.4633150576061,1
5,135,25.6,812.1105675330571,1
5,136,3.2,1483.372966975628,1
5,137,3.2,1443.5076844722685,1
5,138,12.8,1050.279107984886,1
5,139,25.6,766.3540983175591,1
5,140,12.8,971.6943059818323,1
5,141,25.6,753.9438719359963,1
5,142,3.2,1569.7650821570785,1
5,143,12.8,1027.6991270378203,1
5,144,6.4,1364.194043824707,0
5,145,25.6,765.0116891422616,1
5,146,3.2,1562.7007240988946,1
5,147,12.8,977.7528857703537,1
5,148,12.8,1009.2331259995475,1
5,149,12.8,978.0005379028637,1
5,150,12.8,997.9465816138721,1
5,151,25.6,812.8870551020799,1
5,152,3.2,1492.5724782089762,0
5,153,6.4,1295.4285938660855,1
5,154,12.8,1042.563175063387,1
5,155,25.6,756.481798057727,1
5,156,6.4,1389.3494750625994,0
5,157,12.8,982.3370009174436,0
5,158,25.6,797.9059613800432,1
5,159,25.6,728.3808162301474,1
5,160,12.8,1052.1858875079126,1
5,161,25.6,763.7029574078432,1
5,162,3.2,1461.0098489848756,0
5,163,3.2,1509.9946597941403,0
5,164,12.8,993.4226962733194,1
5,165,6.4,1290.8395995674541,1
5,166,6.4,1343.9959443923876,1
5,167,3.2,1467.318591281246,1
5,168,3.2,1424.028049669108,0
5,169,3.2,1476.9021796017146,0
5,170,25.6,825.6945282148773,1
5,171,12.8,1057.4420396537055,1
5,172,12.8,1070.5095694140646,1
5,173,25.6,730.3012498589703,0
5,174,12.8,944.4280732041585,1
5,175,6.4,1432.631676223872,1
5,176,6.4,1417.2825844217593,1
5,177,25.6,711.5538764822834,1
5,178,3.2,1586.3543157902213,1
5,179,3.2,1536.8060999881618,1
5,180,12.8,1037.078970380818,1
5,181,3.2,1545.5668049016735,0
5,182,6.4,1463.5179198672313,0
5,183,3.2,1440.3340007654785,1
5,184,25.6,697.4051174503361,0
5,185,3.2,1440.838177996137,1
5,186,12.8,1026.0636450574125,1
5,187,6.4,1271.631531880115,1
5,188,6.4,1421.98555776862,1
5,189,3.2,1531.361880716251,0
5,190,3.2,1420.013882351672,1
5,191,12.8,1031.077067153349,1
5,192,3.2,1598.2624292676956,1
5,193,12.8,949.7135098144072,1
5,194,12.8,929.4080614453774,0
5,195,12.8,1000.1682173821735,1
5,196,3.2,1505.59078054743,1
5,197,6.4,1356.7283946855027,0
5,198,25.6,741.9281008022136,1
5,199,6.4,1411.465740227441,1
5,200,6.4,1304.3409295658532,0
6,1,25.6,831.3512969472773,1
6,2,25.6,704.777848102205,1
6,3,3.2,1438.408240528623,1
6,4,25.6,794.548684308282,1
6,5,3.2,1515.216381775011,1
6,6,6.4,1395.9731845664364,0
6,7,3.2,1424.000387312354,0
6,8,6.4,1296.8512328909467,1
6,9,12.8,891.6523428809111,1
6,10,3.2,1460.0437624199922,1
6,11,25.6,763.6474994530239,1
6,12,6.4,1343.7051475799822,1
6,13,25.6,765.5345385936185,1
6,14,3.2,1513.6658925968961,1
6,15,3.2,1461.626354146238,0
6,16,25.6,719.9052872767478,1
6,17,12.8,1024.3935532767773,1
6,18,3.2,1486.5685774561566,0
6,19,3.2,1555.200521990629,0
6,20,3.2,1489.7662871598193,1
6,21,3.2,1472.664250371282,1
6,22,25.6,703.8648672188864,1
6,23,6.4,1413.4244750706919,0
6,24,3.2,1527.4943543085635,0
6,25,12.8,998.8785171242397,0
6,26,6.4,1342.3539778663032,1
6,27,12.8,1067.7227920249256,1
6,28,6.4,1374.4331072179498,1
6,29,25.6,689.9530718147342,1
6,30,3.2,1617.0940791227215,0
6,31,25.6,785.0646262937245,1
6,32,6.4,1373.9009080675444,0
6,33,3.2,1517.6060931154263,0
6,34,25.6,761.7679310426496,1
6,35,6.4,1386.6807832640015,1
6,36,25.6,723.546049768885,1
6,37,25.6,738.0039278676043,1
6,38,6.4,1390.4727157104144,1
6,39,6.4,1333.0639434495351,1
6,40,12.8,932.4541504107365,1
6,41,6.4,1392.0534950571987,1
6,42,12.8,1024.7964509076005,1
6,43,12.8,1104.13752345541,0
6,44,3.2,1503.3936876564062,1
6,45,6.4,1295.8131367758135,1
6,46,12.8,973.9328707212218,0
6,47,25.6,857.5410951179473,1
6,48,12.8,942.2280465299868,1
6,49,3.2,1509.2928143639515,1
6,50,3.2,1487.7085775477292,1
6,51,12.8,1031.5705440375405,1
6,52,25.6,709.0875852993424,1
6,53,6.4,1358.003739351088,1
6,54,3.2,1573.3471700454936,0
6,55,6.4,1434.9731402279488,1
6,56,6.4,1386.4851998182592,1
6,57,3.2,1563.6072746905122,1
6,58,12.8,964.2765571249607,1
6,59,6.4,1307.4127745869173,0
6,60,12.8,964.0793574888589,1
6,61,25.6,758.7015343858648,1
6,62,25.6,802.6406324077432,1
6,63,6.4,1367.1011059472116,1
6,64,6.4,1302.1960012176278,1
6,65,6.4,1249.8399646857017,1
6,66,12.8,1026.0838093595103,1
6,67,6.4,1406.3665732460352,1
6,68,3.2,1543.1924797328757,1
6,69,6.4,1388.8930721580805,1
6,70,25.6,711.918422677887,1
6,71,3.2,1553.2710132027473,0
6,72,25.6,821.8726239324518,1
6,73,12.8,1064.8446596511951,1
6,74,6.4,1319.2715773273856,0
6,75,6.4,1352.50030934957,1
6,76,6.4,1335.662595155635,1
6,77,12.8,1051.7242755616621,1
6,78,6.4,1454.1985158741115,0
6,79,25.6,820.985409323434,1
6,80,6.4,1385.258783885702,1
6,81,25.6,695.2836883414367,1
6,82,6.4,1389.071445789218,1
6,83,6.4,1410.247717564786,1
6,84,6.4,1391.1013910988966,1
6,85,12.8,974.9724345212917,0
6,86,6.4,1349.5488750561292,1
6,87,6.4,1380.6821152193065,1
6,88,12.8,985.164832355621,0
6,89,12.8,1010.2830808341752,1
6,90,6.4,1390.3348413704425,1
6,91,12.8,1053.2389135477633,1
6,92,25.6,814.5748914452386,1
6,93,12.8,942.6480398090913,1
6,94,3.2,1496.6110355614996,1
6,95,6.4,1452.7040455323445,0
6,96,25.6,767.8299507830255,1
6,97,25.6,694.9814934171054,1
6,98,25.6,713.1638908187582,1
6,99,25.6,799.4811080308192,1
6,100,3.2,1546.992277559442,1
6,101,6.4,1416.9379353510158,1
6,102,12.8,929.0511028744382,1
6,103,25.6,783.2241540477197,1
6,104,25.6,770.3067858866016,1
6,105,6.4,1324.8736950972775,1
6,106,6.4,1307.498273161108,1
6,107,12.8,1092.9905772745997,0
6,108,6.4,1400.2773302434196,0
6,109,3.2,1438.0956760752415,0
6,110,6.4,1286.0619090704163,0
6,111,12.8,1094.3460952314008,1
6,112,6.4,1321.8666373476385,1
6,113,12.8,1039.4800073294396,1
6,114,6.4,1324.3072025499819,1
6,115,12.8,949.5324287044348,1
6,116,25.6,700.7705082657009,1
6,117,6.4,1435.2582310517525,1
6,118,3.2,1460.0284031538338,1
6,119,3.2,1470.838203586072,0
6,120,6.4,1374.584611791434,1
6,121,25.6,855.6472227705628,1
6,122,25.6,682.1976040518979,1
6,123,25.6,713.8482037505424,1
6,124,6.4,1321.5484058437235,1
6,125,3.2,1507.5756455539877,1
6,126,25.6,809.596097115772,1
6,127,25.6,689.5136483512146,1
6,128,12.8,1005.9874840365552,1
6,129,25.6,770.4563471276289,1
6,130,25.6,720.6540543365454,1
6,131,6.4,1357.3168159132197,0
6,132,12.8,953.3684002388809,1
6,133,3.2,1500.7574935022544,0
6,134,12.8,986.7004434778803,1
6,135,3.2,1509.6691628122367,1
6,136,12.8,1019.1202581943035,1
6,137,3.2,1486.2532360471587,1
6,138,3.2,1510.0862252481181,1
6,139,25.6,815.5617963615155,1
6,140,6.4,1292.9043380303165,1
6,141,6.4,1382.7189776724201,1
6,142,3.2,1410.504595947558,1
6,143,25.6,800.5863711947364,1
6,144,25.6,739.4803209435487,1
6,145,25.6,694.8090357135143,1
6,146,12.8,1057.3081585524772,1
6,147,3.2,1513.2980169163322,1
6,148,25.6,788.888087406596,1
6,149,25.6,717.1580247610158,1
6,150,6.4,1373.0319084945484,1
6,151,12.8,961.9459822640558,1
6,152,6.4,1317.815717927189,1
6,153,6.4,1369.3176639461763,1
6,154,25.6,863.6447919273182,1
6,155,6.4,1349.0548290924185,0
6,156,25.6,720.1558632023585,1
6,157,12.8,1051.4697176973075,1
6,158,6.4,1476.9638809940814,0
6,159,12.8,1021.4997398500387,1
6,160,6.4,1375.9866155204163,1
6,161,6.4,1349.788065414968,1
6,162,12.8,939.220355036935,1
6,163,6.4,1337.6009899585597,1
6,164,6.4,1361.4377240693832,1
6,165,6.4,1317.2137345666754,1
6,166,6.4,1447.8380075700302,0
6,167,12.8,958.4232156070947,1
6,168,12.8,1075.8442287261091,1
6,169,6.4,1321.8864715838736,1
6,170,6.4,1504.4551510814338,1
6,171,6.4,1297.1720919345976,1
6,172,6.4,1375.8717343678316,1
6,173,25.6,743.0362026322521,1
6,174,3.2,1430.0227933813385,1
6,175,6.4,1358.347281448955,1
6,176,12.8,982.5105686970695,1
6,177,3.2,1511.390128621636,1
6,178,12.8,1038.8494838940235,1
6,179,3.2,1431.0390472782835,1
6,180,6.4,1357.8110097587808,1
6,181,6.4,1298.969016481593,1
6,182,3.2,1527.5578045697237,1
6,183,25.6,804.8492273229492,1
6,184,25.6,695.7593818757964,1
6,185,6.4,1361.2314269579535,1
6,186,3.2,1458.6557854609516,1
6,187,6.4,1406.225015624724,0
6,188,25.6,723.6889717255386,1
6,189,12.8,1005.3590321523903,1
6,190,6.4,1397.3285317766897,1
6,191,6.4,1400.9510860081862,1
6,192,12.8,989.2460298536869,1
6,193,25.6,742.6891675155025,1
6,194,25.6,868.2317711954452,1
6,195,6.4,1334.9553932660115,1
6,196,6.4,1286.412086992968,1
6,197,6.4,1299.1364403408518,1
6,198,25.6,684.3794889234034,1
6,199,3.2,1534.624819022703,1
6,200,3.2,1481.9433160403155,1
7,1,6.4,1155.943252154731,1
7,2,12.8,780.6388499947901,1
7,3,25.6,601.9617982391238,1
7,4,3.2,1166.7719695417295,1
7,5,12.8,738.6046846800434,1
7,6,12.8,794.2028932312583,1
7,7,25.6,669.7659721831875,1
7,8,3.2,1333.6251322883793,0
7,9,25.6,527.1059163806241,1
7,10,3.2,1202.652789612903,1
7,11,6.4,1088.3327732561004,1
7,12,12.8,831.4286106941584,1
7,13,6.4,1117.0283721743308,1
7,14,6.4,1133.0216685471605,0
7,15,25.6,487.11736583606,1
7,16,25.6,585.3916703816519,1
7,17,12.8,834.2997099565199,1
7,18,6.4,1129.950835034502,1
7,19,25.6,454.17053749438884,1
7,20,6.4,1165.9740167241707,1
7,21,25.6,594.6214439512477,1
7,22,25.6,572.6748701545248,1
7,23,6.4,1016.1828857985721,1
7,24,6.4,1176.519432535842,1
7,25,3.2,1099.73317757204,0
7,26,6.4,1082.1034655417523,0
7,27,12.8,762.7033960667401,1
7,28,25.6,648.9906277380646,1
7,29,6.4,1086.6057884828624,0
7,30,3.2,1159.3213606983397,0
7,31,3.2,1222.78204167334,1
7,32,12.8,888.3946672915833,0
7,33,3.2,1255.5253871291857,1
7,34,6.4,1106.6561018502598,1
7,35,6.4,1066.0436105135968,1
7,36,3.2,1185.0666057610379,1
7,37,12.8,820.4153298075772,1
7,38,25.6,497.0585009442535,1
7,39,25.6,557.2472780747202,1
7,40,3.2,1254.7720602434672,1
7,41,25.6,680.9232278094695,1
7,42,6.4,1055.0614189203889,0
7,43,25.6,545.6771064265454,1
7,44,12.8,818.3692217933265,1
7,45,6.4,1053.9077270713885,1
7,46,12.8,861.9283119950616,1
7,47,3.2,1121.2220157101387,1
7,48,25.6,544.6655695053977,1
7,49,3.2,1148.983704482747,1
7,50,25.6,534.1369753546705,1
7,51,25.6,603.644453699063,1
7,52,6.4,1110.1774585688838,1
7,53,25.6,603.5486209953727,1
7,54,25.6,530.0407635731829,1
7,55,12.8,736.0496186044362,1
7,56,12.8,798.9011359251612,1
7,57,25.6,524.4207776695733,1
7,58,3.2,1162.1700909660499,1
7,59,6.4,1139.5079147157694,1
7,60,3.2,1155.2251312622868,1
7,61,25.6,663.412792660369,1
7,62,12.8,814.2139664179751,1
7,63,12.8,808.82333891855,1
7,64,6.4,1140.541443946799,1
7,65,6.4,1109.2626734828448,1
7,66,6.4,1073.6949607566642,1
7,67,12.8,833.5401653854511,1
7,68,3.2,1175.4409212626442,1
7,69,3.2,1190.2147428353092,1
7,70,25.6,629.4963185635069,1
7,71,6.4,1120.8206629161548,1
7,72,25.6,557.838914438378,1
7,73,25.6,616.6714951686478,1
7,74,12.8,810.2681084184727,1
7,75,6.4,1122.4904247128343,1
7,76,3.2,1091.027395434186,1
7,77,6.4,1118.9215620489422,1
7,78,6.4,1092.5286944337543,1
7,79,3.2,1153.9182237315672,1
7,80,3.2,1110.186669592306,1
7,81,25.6,602.3185380853656,1
7,82,25.6,601.0309859263035,1
7,83,12.8,871.8597345184173,1
7,84,25.6,688.992132933005,1
7,85,12.8,791.8312358310253,1
7,86,12.8,818.1403395616773,1
7,87,6.4,1065.9786556138124,1
7,88,12.8,876.7758291636095,1
7,89,12.8,646.4868087157048,1
7,90,25.6,634.8822805184058,1
7,91,3.2,1177.703528478737,1
7,92,3.2,1219.2832641449334,1
7,93,3.2,1152.5767179086145,1
7,94,12.8,769.4760610260037,1
7,95,3.2,1136.4869526473599,1
7,96,6.4,1174.4173661571042,1
7,97,12.8,843.9634562069923,1
7,98,3.2,1161.2077341948184,1
7,99,12.8,808.8173337591471,1
7,100,12.8,768.9664748970249,1
7,101,12.8,773.9969165888505,1
7,102,6.4,1153.2269154589949,1
7,103,12.8,847.3730419764855,1
7,104,3.2,1174.3910979301045,1
7,105,12.8,774.248433144033,1
7,106,6.4,1108.1429849966794,1
7,107,3.2,1185.3372275204754,1
7,108,6.4,1112.7703905188407,1
7,109,12.8,797.8868011803863,1
7,110,6.4,1243.7377200854658,1
7,111,3.2,1132.1079985159017,1
7,112,12.8,721.9839868413527,1
7,113,12.8,821.5486402167335,1
7,114,12.8,783.6882256090839,1
7,115,3.2,1178.1758499957461,1
7,116,12.8,860.5110688994448,1
7,117,3.2,1252.7892512113208,1
7,118,6.4,1132.3296135899122,1
7,119,3.2,1145.8540924761378,1
7,120,3.2,1092.3915795594974,1
7,121,6.4,1069.0339708612446,0
7,122,6.4,1054.7261284128363,1
7,123,6.4,1087.6973452131615,1
7,124,25.6,603.0074777675188,1
7,125,3.2,1218.648431523012,0
7,126,25.6,564.9058475585364,1
7,127,6.4,1069.994968703147,1
7,128,12.8,688.4812338107502,1
7,129,6.4,1115.4483911136294,1
7,130,3.2,1153.5305426898028,1
7,131,3.2,1202.609010576797,1
7,132,3.2,1230.29740693068,1
7,133,25.6,607.4877612761297,1
7,134,25.6,633.951014146644,1
7,135,3.2,1175.7235909959886,1
7,136,6.4,1085.8040977445542,1
7,137,6.4,1110.2035918100605,1
7,138,25.6,662.4333566186673,1
7,139,25.6,516.7419662672293,1
7,140,12.8,784.8272945977714,1
7,141,6.4,1062.7557092928023,1
7,142,25.6,434.32151633115905,1
7,143,25.6,664.06849038928,1
7,144,6.4,1071.317571400146,1
7,145,6.4,1182.6952058988638,1
7,146,25.6,582.3391472178363,1
7,147,25.6,674.5673510083614,1
7,148,12.8,755.5749083253486,1
7,149,25.6,590.5649135156119,1
7,150,12.8,850.2940755412575,1
7,151,25.6,519.2353297372501,0
7,152,25.6,716.7442001367372,1
7,153,6.4,1062.9065275189614,1
7,154,6.4,1060.590564208769,0
7,155,3.2,1202.423396062065,1
7,156,25.6,553.8271115358381,1
7,157,6.4,1137.5806945271918,1
7,158,3.2,1185.649991788847,1
7,159,12.8,718.7011778009927,1
7,160,3.2,1253.8246475283331,1
7,161,25.6,523.2193316608286,1
7,162,6.4,1188.6424427659178,1
7,163,12.8,772.566422604465,1
7,164,3.2,1170.1826007004333,1
7,165,3.2,1097.7726107766,0
7,166,25.6,564.9080495792846,1
7,167,12.8,823.3136386356047,1
7,168,25.6,578.5732451556943,1
7,169,25.6,552.4171617151445,1
7,170,25.6,579.9677107411256,1
7,171,12.8,724.8510279705358,0
7,172,3.2,1234.5844603386458,0
7,173,6.4,1042.1457483203483,1
7,174,25.6,641.5839658616338,1
7,175,25.6,654.4567909486541,1
7,176,6.4,1150.3324395353259,1
7,177,3.2,1279.4012178382711,1
7,178,25.6,540.0448736310101,1
7,179,12.8,828.391146029989,1
7,180,6.4,1147.352013122077,1
7,181,12.8,741.75890106229,1
7,182,12.8,796.6256022474099,1
7,183,25.6,518.1233910064973,1
7,184,6.4,1213.4416681430225,1
7,185,12.8,872.2199438744544,1
7,186,12.8,862.8861173400519,1
7,187,25.6,613.9190974971633,1
7,188,12.8,726.9334981678296,1
7,189,12.8,777.2787789587372,1
7,190,6.4,1047.4350832435152,1
7,191,3.2,1158.477436983563,1
7,192,12.8,710.7292643442506,1
7,193,12.8,821.9209525413424,1
7,194,6.4,1022.059598793539,1
7,195,3.2,1155.401862130271,1
7,196,6.4,1165.6121146656244,0
7,197,25.6,500.26109420980185,1
7,198,12.8,808.5191680146617,1
7,199,3.2,1133.5850624517225,1
7,200,6.4,1085.6078610708087,1
8,1,3.2,1189.0872509052258,1
8,2,12.8,820.6404471779508,1
8,3,6.4,1171.2438852418632,1
8,4,25.6,637.1143433322246,1
8,5,25.6,600.4544730266199,1
8,6,6.4,1090.3663230645366,1
8,7,25.6,613.5738510127146,1
8,8,6.4,1113.9370618741534,1
8,9,3.2,1135.5394249541823,1
8,10,6.4,1172.0547655095415,1
8,11,3.2,1259.1449556135613,0
8,12,6.4,1084.5413212153453,1
8,13,3.2,1166.8404406973423,1
8,14,3.2,1262.8259083050157,1
8,15,3.2,1197.8160027674287,1
8,16,6.4,1054.230018057909,1
8,17,25.6,627.6949100910164,1
8,18,3.2,1215.9482754871935,1
8,19,3.2,1202.1301533774854,1
8,20,12.8,770.8231390509064,1
8,21,25.6,564.7146287804335,0
8,22,6.4,1066.1337414876307,1
8,23,6.4,1087.5482220348913,1
8,24,6.4,1169.8169219882866,1
8,25,12.8,770.7335601962411,1
8,26,25.6,561.758211781953,1
8,27,12.8,725.9722227693002,1
8,28,3.2,1159.3164178451004,0
8,29,3.2,1163.2049879527217,1
8,30,25.6,484.0432950279626,1
8,31,6.4,1121.1490149001108,1
8,32,25.6,580.584483701512,1
8,33,6.4,1102.137024554343,0
8,34,3.2,1154.3972938464306,1
8,35,12.8,772.711158129557,1
8,36,6.4,1114.0891932854618,1
8,37,3.2,1215.5932705914793,1
8,38,12.8,849.4436176762305,1
8,39,12.8,737.3848848763639,1
8,40,25.6,599.4189397085607,1
8,41,12.8,798.5351885346837,1
8,42,3.2,1181.0382558475821,1
8,43,6.4,1110.6558346942554,1
8,44,6.4,1002.9419815491774,1
8,45,25.6,642.4541528379185,0
8,46,25.6,573.8250568319962,1
8,47,25.6,536.9214209922308,1
8,48,25.6,579.8129482988783,1
8,49,6.4,1106.1127525519112,1
8,50,6.4,1120.689556410223,1
8,51,25.6,602.2136708961796,1
8,52,12.8,806.2781300151466,1
8,53,12.8,812.6350007284889,1
8,54,25.6,594.5976047621766,1
8,55,12.8,796.9338227907386,1
8,56,25.6,585.6313112487534,1
8,57,3.2,1219.6513709669368,1
8,58,3.2,1220.99270491649,1
8,59,25.6,600.4452230652173,1
8,60,3.2,1232.1532535194644,1
8,61,12.8,776.8121431288898,1
8,62,6.4,1002.8368701931782,1
8,63,6.4,1114.055884297953,1
8,64,6.4,1128.8424419765242,1
8,65,25.6,658.4071304929606,1
8,66,3.2,1139.7712280112855,0
8,67,6.4,1160.088055996962,0
8,68,3.2,1220.1075363069958,1
8,69,12.8,819.3532042001142,1
8,70,3.2,1216.0736003677428,1
8,71,12.8,734.0183440050348,1
8,72,25.6,557.9192253254909,1
8,73,25.6,524.7352246576788,1
8,74,25.6,511.66209256512286,1
8,75,12.8,866.4333543629151,1
8,76,6.4,1123.8087108124155,0
8,77,12.8,813.4560445616056,1
8,78,6.4,1062.0513327202414,1
8,79,6.4,1110.5803563321379,1
8,80,25.6,562.9065653247935,1
8,81,12.8,669.0447271295801,1
8,82,12.8,813.0083117513608,1
8,83,6.4,1133.2109004414526,1
8,84,3.2,1247.302303448193,0
8,85,3.2,1137.7082817203243,1
8,86,25.6,668.6678664017569,1
8,87,3.2,1103.0121046368297,1
8,88,6.4,1021.7292528936828,1
8,89,3.2,1142.0254809910402,1
8,90,3.2,1093.9131386524864,1
8,91,3.2,1170.0224355156772,1
8,92,6.4,1081.7743455192904,0
8,93,3.2,1211.6628795191925,1
8,94,6.4,1018.6220775731167,1
8,95,25.6,637.2075502198178,1
8,96,12.8,803.834367539491,1
8,97,25.6,591.8483987783895,1
8,98,25.6,501.4978586290461,1
8,99,6.4,1152.056814830071,1
8,100,25.6,644.2858046434752,1
8,101,3.2,1225.7126905555717,1
8,102,25.6,595.767627006686,1
8,103,6.4,1096.0179404259302,1
8,104,6.4,1053.8741093070548,1
8,105,12.8,826.6655639014627,1
8,106,25.6,674.7056843705228,1
8,107,6.4,1054.3803718340025,1
8,108,3.2,1232.2834117421467,1
8,109,25.6,579.2903495900098,1
8,110,3.2,1222.1823717257762,1
8,111,6.4,1107.2938256413945,1
8,112,3.2,1247.706984026816,1
8,113,3.2,1188.841243151497,1
8,114,12.8,824.6305091492699,1
8,115,3.2,1204.14724982653,1
8,116,25.6,604.7748815997292,1
8,117,25.6,577.5788283855022,1
8,118,6.4,1083.8666566883617,1
8,119,25.6,690.7200556771132,1
8,120,25.6,637.9545712140082,1
8,121,6.4,1065.6025084465284,1
8,122,6.4,1062.7598691079447,1
8,123,12.8,866.1799123029614,1
8,124,12.8,836.2813314484227,1
8,125,6.4,1101.9934285551124,1
8,126,12.8,792.1794950087842,1
8,127,3.2,1207.543659033672,1
8,128,3.2,1213.697128322097,1
8,129,3.2,1234.5498517616802,1
8,130,3.2,1171.3314769710448,1
8,131,25.6,608.1897505869199,1
8,132,12.8,855.7049790042812,1
8,133,12.8,773.9349524358457,1
8,134,12.8,825.9551081704349,1
8,135,25.6,611.7490827963903,1
8,136,3.2,1095.1077073802321,1
8,137,6.4,1138.0291414056996,1
8,138,25.6,500.16547883219744,1
8,139,3.2,1112.7684805755598,1
8,140,25.6,535.164514289287,1
8,141,12.8,814.3588462180302,1
8,142,6.4,1005.4250898764776,1
8,143,25.6,601.5079231665688,1
8,144,3.2,1206.5085880447318,1
8,145,12.8,737.217837298965,1
8,146,12.8,778.1580475781919,1
8,147,12.8,855.7882253783052,1
8,148,25.6,620.9806391829542,1
8,149,6.4,1159.0604818633249,1
8,150,6.4,1236.4295885065328,1
8,151,12.8,800.3580902998756,1
8,152,25.6,661.9399587149122,1
8,153,3.2,1133.891814181206,1
8,154,12.8,796.0940287164702,1
8,155,3.2,1202.424348284564,1
8,156,25.6,615.6767559161178,1
8,157,3.2,1181.8314561772283,1
8,158,6.4,1057.9930827848495,1
8,159,3.2,1152.2518137168574,1
8,160,25.6,647.9133500152329,1
8,161,12.8,721.4725969122733,1
8,162,25.6,583.1173119779083,1
8,163,25.6,685.8254804208813,1
8,164,25.6,611.3149542937356,1
8,165,6.4,980.4392962230004,1
8,166,6.4,1166.415420745369,1
8,167,6.4,1122.2565187252612,1
8,168,25.6,614.8747712307546,1
8,169,6.4,1031.6589296690165,1
8,170,6.4,1068.8790900657368,1
8,171,3.2,1193.5249753043265,1
8,172,3.2,1128.957713730746,1
8,173,25.6,659.8503256673536,1
8,174,3.2,1239.2667486511905,0
8,175,12.8,827.0137197619342,1
8,176,6.4,1133.8171797269943,1
8,177,12.8,757.2409178398658,1
8,178,6.4,1079.8186119239745,1
8,179,25.6,517.6418190601889,1
8,180,3.2,1209.9575168393173,1
8,181,6.4,1100.9292637382046,1
8,182,12.8,881.7617648681342,1
8,183,25.6,599.4321166586335,1
8,184,3.2,1241.4631070919722,1
8,185,12.8,737.6541740773091,1
8,186,25.6,566.5622370583798,1
8,187,12.8,819.2477156093338,1
8,188,12.8,734.1339848999287,1
8,189,25.6,545.3245031223036,1
8,190,6.4,1116.5689317645686,1
8,191,6.4,1155.034532745539,1
8,192,25.6,649.1928901314059,1
8,193,25.6,620.7118901461542,1
8,194,25.6,631.5560208246555,1
8,195,12.8,724.7575931182764,1
8,196,6.4,1177.8128706160917,1
8,197,6.4,1125.072189070491,1
8,198,3.2,1177.0759258705948,1
8,199,12.8,695.8735226924339,1
8,200,3.2,1183.7360462584834,1
