Block,Trial,Driving Power,Response Time (ms),Correct
1,1,12.8,1473.2861482491282,1
1,2,6.4,1546.6906147472328,0
1,3,3.2,1767.336637261227,0
1,4,6.4,1584.6013954435266,1
1,5,6.4,1553.9477459288107,1
1,6,6.4,1641.2307756936743,0
1,7,25.6,1233.7657931581473,1
1,8,25.6,1198.8114553637522,1
1,9,12.8,1296.179867786376,0
1,10,6.4,1494.720174394774,1
1,11,3.2,1847.062080845441,1
1,12,25.6,1123.1774208986765,1
1,13,25.6,1184.94549890899,1
1,14,25.6,1208.2791872082473,0
1,15,25.6,1201.0184441243782,1
1,16,25.6,1196.3002223399963,0
1,17,3.2,1858.594696503349,1
1,18,12.8,1399.3925241692925,0
1,19,25.6,1145.2961546711572,1
1,20,25.6,1231.5925286230872,1
1,21,6.4,1636.0070134922803,0
1,22,25.6,1095.9625994322814,1
1,23,25.6,1135.7390313317617,1
1,24,25.6,1213.504993194104,1
1,25,3.2,1697.3875599834428,1
1,26,12.8,1449.8609200965639,1
1,27,12.8,1350.256222229233,0
1,28,12.8,1344.7749623004975,0
1,29,3.2,1792.7948379960837,1
1,30,3.2,1754.4103021658757,0
1,31,6.4,1606.3135273786377,1
1,32,6.4,1576.6566528179767,1
1,33,25.6,1147.5856280158687,1
1,34,3.2,1727.414537554465,0
1,35,25.6,1208.4188810816017,1
1,36,6.4,1590.8990672303785,0
1,37,3.2,1843.1222560441906,1
1,38,25.6,1208.5372910459434,0
1,39,12.8,1391.4604686479172,1
1,40,12.8,1476.766610156814,0
1,41,12.8,1476.3180358217917,0
1,42,25.6,1161.1222568564979,1
1,43,3.2,1818.7337830125625,0
1,44,12.8,1552.3012187467546,1
1,45,25.6,1220.5160145991485,1
1,46,3.2,1816.2312801001524,0
1,47,25.6,1287.4867325226085,1
1,48,3.2,1772.0012292977572,1
1,49,3.2,1826.7644131055217,1
1,50,12.8,1451.053917881437,0
1,51,3.2,1811.9021597204248,1
1,52,25.6,1172.6332591563546,1
1,53,3.2,1744.8900166320648,0
1,54,6.4,1598.9727806479905,1
1,55,6.4,1633.4818238635137,1
1,56,12.8,1349.4030293048058,0
1,57,3.2,1839.4581045206064,1
1,58,25.6,1166.7647643771634,1
1,59,12.8,1366.9487297936575,1
1,60,12.8,1511.323814978895,1
1,61,6.4,1580.256835537839,0
1,62,6.4,1588.396323684515,1
1,63,12.8,1444.8302083719068,1
1,64,3.2,1844.1795951887073,1
1,65,12.8,1339.8061785639306,0
1,66,6.4,1551.5488299275762,1
1,67,6.4,1536.4878055866238,0
1,68,6.4,1539.5538294567323,1
1,69,25.6,1282.1227820915065,1
1,70,12.8,1417.138227837173,0
1,71,6.4,1539.6060651873588,1
1,72,12.8,1448.3348014108233,1
1,73,3.2,1710.1600957763703,0
1,74,12.8,1407.4964786250446,1
1,75,3.2,1835.1192239162217,1
1,76,25.6,1166.3942283883812,0
1,77,6.4,1572.6449856120296,1
1,78,6.4,1584.348616266622,1
1,79,12.8,1322.015136600673,1
1,80,6.4,1600.7931943075293,1
1,81,3.2,1838.9736610917046,1
1,82,25.6,1161.449462264847,1
1,83,3.2,1831.4289647690225,1
1,84,12.8,1314.6776747492713,1
1,85,25.6,1272.107164206058,1
1,86,25.6,1092.8616019117999,1
1,87,12.8,1408.4484112737441,1
1,88,6.4,1593.3112483158184,1
1,89,3.2,1833.2106622707447,1
1,90,12.8,1430.2568996123925,1
1,91,3.2,1821.845163924482,1
1,92,25.6,1176.5063336990504,1
1,93,25.6,1112.1235287599807,0
1,94,12.8,1350.925872430839,0
1,95,12.8,1357.6811600153733,1
1,96,6.4,1602.8280273419264,1
1,97,6.4,1546.641385744509,1
1,98,12.8,1439.993342276541,1
1,99,3.2,1690.0475005658593,1
1,100,25.6,1229.981377333084,1
1,101,3.2,1798.942513608559,0
1,102,12.8,1420.3266585299634,0
1,103,12.8,1477.0293133607995,0
1,104,6.4,1641.538303358093,0
1,105,25.6,1186.71243550685,1
1,106,25.6,1179.2943721626589,0
1,107,3.2,1775.0229218385373,1
1,108,12.8,1360.6571264026052,1
1,109,6.4,1584.50367785711,1
1,110,3.2,1817.0903891854603,0
1,111,25.6,1259.4898694993096,1
1,112,25.6,1116.427881631891,1
1,113,25.6,1204.8698376034235,1
1,114,6.4,1562.4512425994253,0
1,115,25.6,1159.378660352045,1
1,116,25.6,1141.8014744289958,1
1,117,12.8,1414.3526815992602,1
1,118,6.4,1672.5589024528472,1
1,119,3.2,1871.2897008002535,0
1,120,6.4,1573.5058705494184,1
1,121,3.2,1757.476526604194,0
1,122,3.2,1896.828665824482,0
1,123,12.8,1321.0568092596545,0
1,124,12.8,1402.0895995820258,1
1,125,25.6,1252.7688240734624,0
1,126,3.2,1756.2303209100278,1
1,127,25.6,1224.7589387840057,1
1,128,3.2,1836.4333209143276,0
1,129,6.4,1624.0958621990953,0
1,130,25.6,1147.2002763226822,1
1,131,25.6,1164.238929913433,1
1,132,6.4,1616.0506651172384,1
1,133,25.6,1216.634283923496,1
1,134,25.6,1239.0306654289077,1
1,135,12.8,1408.9967858837836,1
1,136,3.2,1862.3371248809267,0
1,137,6.4,1610.8439817380831,1
1,138,3.2,1858.3703043415362,0
1,139,6.4,1589.7154330589938,1
1,140,3.2,1773.2676640094628,1
1,141,12.8,1425.1739639165019,0
1,142,12.8,1437.9944090925724,1
1,143,25.6,1184.3857464214232,1
1,144,25.6,1236.0515488890624,1
1,145,3.2,1827.8923551683617,1
1,146,25.6,1264.9538042157953,1
1,147,6.4,1598.3861935948137,1
1,148,25.6,1229.2825479742348,1
1,149,25.6,1042.1904713177823,0
1,150,3.2,1843.3212756124244,1
1,151,25.6,1242.9762561311381,1
1,152,12.8,1396.2122353271643,1
1,153,25.6,1212.5809756957347,1
1,154,3.2,1841.1223077415846,0
1,155,3.2,1774.5748572692337,0
1,156,12.8,1383.2089528694783,1
1,157,12.8,1440.0553315197349,1
1,158,25.6,1297.3669452737142,1
1,159,6.4,1617.546608588885,0
1,160,12.8,1394.5829282125262,1
1,161,3.2,1792.6927860414673,1
1,162,12.8,1348.4706550242704,1
1,163,6.4,1655.893560062717,0
1,164,3.2,1823.0426398955672,1
1,165,3.2,1736.3768463288434,1
1,166,3.2,1819.7467799654437,1
1,167,3.2,1847.0848188175842,0
1,168,12.8,1301.0175717481804,1
1,169,12.8,1430.590679718395,1
1,170,12.8,1403.742710659891,1
1,171,25.6,1250.9876394172718,1
1,172,6.4,1596.0105205444295,1
1,173,25.6,1163.94532577775,0
1,174,25.6,1215.0029524147828,1
1,175,3.2,1685.0248877026113,0
1,176,6.4,1589.3379976429846,1
1,177,3.2,1720.1418126726694,0
1,178,25.6,1175.278066026203,1
1,179,6.4,1574.9547578141487,1
1,180,6.4,1581.6060479555304,1
1,181,12.8,1520.2153850405412,1
1,182,12.8,1287.0867932897904,1
1,183,12.8,1384.698211165849,0
1,184,25.6,1250.1881597467582,1
1,185,3.2,1795.5102353767156,0
1,186,12.8,1429.4638687814504,1
1,187,12.8,1414.3979116506362,0
1,188,12.8,1379.9392497163512,1
1,189,3.2,1729.9523356065529,1
1,190,6.4,1574.1833365063685,1
1,191,3.2,1807.5441156281536,1
1,192,12.8,1484.9264897397807,0
1,193,6.4,1617.911089209017,1
1,194,6.4,1587.4212286330433,0
1,195,3.2,1802.8780264347868,1
1,196,12.8,1445.4556866426308,0
1,197,12.8,1382.4257529341846,1
1,198,3.2,1749.0979997111517,1
1,199,25.6,1137.8073915922191,1
1,200,25.6,1293.8044545799225,1
2,1,3.2,1866.6961485853028,0
2,2,6.4,1605.8151072982212,1
2,3,3.2,1706.9690968495443,1
2,4,25.6,1188.6506502764566,1
2,5,12.8,1405.029874765342,1
2,6,25.6,1223.2474945929373,0
2,7,25.6,1119.8655286084386,1
2,8,12.8,1537.6081261297834,1
2,9,6.4,1569.3906219754672,1
2,10,6.4,1645.0644230425833,0
2,11,6.4,1721.0293453928703,1
2,12,12.8,1328.7632220307803,1
2,13,6.4,1540.457853750939,1
2,14,3.2,1785.1966747877566,1
2,15,25.6,1310.40187289231,1
2,16,6.4,1603.7005165515932,1
2,17,6.4,1691.926185508918,1
2,18,25.6,1230.7014320559758,1
2,19,12.8,1437.0829490841757,1
2,20,6.4,1589.5069914716346,0
2,21,6.4,1568.0954627060325,0
2,22,3.2,1753.973551177615,0
2,23,12.8,1369.4134541059252,1
2,24,6.4,1577.2083495632912,1
2,25,25.6,1225.7203827404835,1
2,26,6.4,1634.2712784476362,0
2,27,3.2,1746.0705051184625,1
2,28,25.6,1157.8173904852704,1
2,29,12.8,1508.7972233633723,1
2,30,6.4,1680.8985948999953,0
2,31,6.4,1595.4064680880638,1
2,32,12.8,1437.8586567673538,0
2,33,3.2,1867.5957870202733,1
2,34,6.4,1613.384186025496,1
2,35,25.6,1284.9427118933288,1
2,36,25.6,1186.2358324457844,1
2,37,12.8,1402.585831178114,0
2,38,6.4,1598.9809407001928,0
2,39,6.4,1624.3204010228144,1
2,40,12.8,1389.6656817289102,1
2,41,12.8,1419.202097685987,0
2,42,3.2,1833.6502657318742,1
2,43,3.2,1866.854401979558,0
2,44,3.2,1822.310864607065,0
2,45,25.6,1201.9312750550496,0
2,46,6.4,1654.1981645765748,0
2,47,12.8,1369.1034325549415,1
2,48,3.2,1801.7366850924427,0
2,49,6.4,1633.3662978495584,1
2,50,25.6,1191.1042184560645,1
2,51,6.4,1571.7115451805182,1
2,52,6.4,1493.239208738222,1
2,53,25.6,1160.038270376171,0
2,54,3.2,1811.4117483173368,0
2,55,25.6,1124.3192538660348,1
2,56,6.4,1563.250265872762,0
2,57,6.4,1573.7443283735124,0
2,58,25.6,1194.3859396415019,1
2,59,6.4,1621.257709031153,0
2,60,6.4,1610.4894836988626,1
2,61,3.2,1736.9314100310621,1
2,62,6.4,1674.812292434454,1
2,63,12.8,1380.259823598704,1
2,64,25.6,1123.1778328405178,1
2,65,6.4,1541.0062426214581,1
2,66,12.8,1490.366927616698,1
2,67,12.8,1410.324278782088,1
2,68,6.4,1667.1620771276132,0
2,69,12.8,1381.9516341841183,0
2,70,3.2,1759.8515246010381,0
2,71,12.8,1400.8432615600802,1
2,72,12.8,1452.6606714191757,1
2,73,25.6,1177.8427323205578,1
2,74,3.2,1807.3136052064492,0
2,75,6.4,1642.739862188699,1
2,76,25.6,1186.3131518255477,0
2,77,25.6,1108.250002361466,0
2,78,6.4,1575.8124762237478,1
2,79,25.6,1156.0872436395864,1
2,80,25.6,1184.0808521311085,1
2,81,3.2,1814.308687719423,1
2,82,6.4,1515.7613819923681,1
2,83,25.6,1194.1586978999005,1
2,84,3.2,1758.8374742692463,0
2,85,12.8,1404.5669254916309,1
2,86,12.8,1429.8210319030095,1
2,87,6.4,1588.7872741129722,1
2,88,25.6,1159.337436340599,1
2,89,6.4,1563.0004343354858,1
2,90,25.6,1228.1586543298708,1
2,91,6.4,1594.8357684487996,1
2,92,6.4,1591.6208925763497,1
2,93,12.8,1471.8890223794658,0
2,94,3.2,1790.117063755247,1
2,95,3.2,1768.290698524137,0
2,96,6.4,1522.9686988974252,0
2,97,25.6,1155.2615765025864,0
2,98,25.6,1216.8053190393302,0
2,99,12.8,1396.306750226606,1
2,100,3.2,1875.1391296040376,0
2,101,6.4,1666.9680120318167,1
2,102,3.2,1874.9220075415606,0
2,103,12.8,1384.625933577476,0
2,104,6.4,1620.1071913484386,0
2,105,3.2,1838.4747508988687,0
2,106,3.2,1745.7134991615521,1
2,107,12.8,1278.3356408916825,1
2,108,3.2,1784.4050313177763,1
2,109,12.8,1407.8708829502375,1
2,110,25.6,1105.871290140548,1
2,111,3.2,1810.6848933621943,0
2,112,25.6,1194.7483234405377,1
2,113,12.8,1349.8145705144784,1
2,114,3.2,1829.0451272347048,0
2,115,3.2,1734.91244033322,1
2,116,12.8,1362.0876830879545,1
2,117,12.8,1360.2968257099462,1
2,118,6.4,1585.996442614552,1
2,119,3.2,1789.8723022717377,0
2,120,6.4,1631.596437096098,1
2,121,6.4,1633.839819095338,1
2,122,6.4,1662.0862940105962,0
2,123,12.8,1396.1094243120301,1
2,124,3.2,1776.9073868598223,1
2,125,25.6,1248.4026468625516,1
2,126,6.4,1618.12722835061,1
2,127,25.6,1257.27578199466,0
2,128,6.4,1529.6633313195548,1
2,129,3.2,1804.5022664442329,0
2,130,25.6,1207.8805630674415,0
2,131,6.4,1615.8329463641,1
2,132,25.6,1229.730627142798,1
2,133,3.2,1832.0877009953047,1
2,134,25.6,1203.9984794405086,0
2,135,3.2,1824.6988365150414,1
2,136,25.6,1112.355238638208,1
2,137,25.6,1166.8638069422323,1
2,138,25.6,1163.5581922608985,1
2,139,25.6,1296.5045389854456,1
2,140,12.8,1406.6615273752998,1
2,141,3.2,1819.3763111666797,0
2,142,3.2,1893.1593631591118,0
2,143,3.2,1799.941787175459,0
2,144,3.2,1794.387122014637,0
2,145,12.8,1321.1071598518888,0
2,146,25.6,1206.0838185105547,1
2,147,6.4,1546.0950368643116,1
2,148,6.4,1538.6324239435673,0
2,149,3.2,1755.2079487412673,0
2,150,12.8,1406.1713334617914,0
2,151,25.6,1252.044478396652,0
2,152,3.2,1856.0149605983545,0
2,153,6.4,1663.933771174281,1
2,154,6.4,1631.6015011371765,0
2,155,12.8,1353.005087349137,1
2,156,12.8,1343.7862835021301,1
2,157,25.6,1279.7318080939351,1
2,158,3.2,1752.6342614261364,1
2,159,3.2,1793.2031768134798,0
2,160,12.8,1470.6841186900135,1
2,161,6.4,1462.354653267391,1
2,162,6.4,1641.4366928921854,0
2,163,6.4,1554.8724163741476,0
2,164,25.6,1119.2357593935608,1
2,165,6.4,1677.678377794989,1
2,166,3.2,1766.34980126744,1
2,167,25.6,1166.0254537114074,1
2,168,25.6,1220.2262448347904,1
2,169,25.6,1253.1267895767014,1
2,170,12.8,1494.7542667838572,1
2,171,6.4,1558.2796316216406,1
2,172,12.8,1385.9851125172197,1
2,173,25.6,1154.5260505367985,1
2,174,6.4,1632.3109278800953,1
2,175,3.2,1789.3169415442378,0
2,176,12.8,1421.7455832598223,0
2,177,12.8,1421.0746031398048,0
2,178,12.8,1440.6345427763854,1
2,179,6.4,1633.6448501536015,0
2,180,3.2,1847.2651847260342,1
2,181,12.8,1394.8019651267477,1
2,182,12.8,1331.0546257682158,1
2,183,25.6,1177.460911055836,1
2,184,3.2,1780.2691545391265,1
2,185,6.4,1662.1044737575667,1
2,186,3.2,1795.6332755134727,0
2,187,12.8,1456.4073209615656,0
2,188,25.6,1221.4235692251334,1
2,189,25.6,1247.7763193163169,1
2,190,3.2,1718.0643611759217,0
2,191,6.4,1605.9187374233277,1
2,192,6.4,1651.6063335006293,1
2,193,25.6,1162.0194005067692,1
2,194,25.6,1237.1550473177397,1
2,195,25.6,1076.8019005115198,1
2,196,12.8,1410.5829344676324,1
2,197,3.2,1888.0484280139726,1
2,198,25.6,1199.2985475268385,1
2,199,6.4,1629.0275297161338,1
2,200,3.2,1761.9565187291803,0
3,1,12.8,1250.0210403851122,1
3,2,6.4,1339.4079723920038,1
3,3,12.8,1264.695247871674,1
3,4,6.4,1300.011661952529,1
3,5,12.8,1205.396941391688,1
3,6,6.4,1321.6949201195475,1
3,7,12.8,1199.9566117587506,0
3,8,6.4,1413.3298390107504,1
3,9,12.8,1184.2233392726705,1
3,10,12.8,1220.6623208939045,1
3,11,12.8,1200.869359921375,1
3,12,25.6,953.8903266383962,1
3,13,12.8,1214.626339331827,1
3,14,3.2,1531.446744746706,1
3,15,25.6,1063.0151298829082,1
3,16,6.4,1374.2626312721345,0
3,17,12.8,1161.4307221912607,1
3,18,6.4,1379.4786733765159,1
3,19,6.4,1384.134627679359,1
3,20,3.2,1489.6759606893465,0
3,21,25.6,949.060766833932,1
3,22,12.8,1168.4448473217826,1
3,23,25.6,1012.9832774458457,1
3,24,12.8,1125.6876832035089,1
3,25,3.2,1547.950249150409,1
3,26,3.2,1587.954289204592,1
3,27,3.2,1496.3507392129561,0
3,28,3.2,1487.2610427673308,1
3,29,6.4,1353.674714224225,1
3,30,6.4,1387.5808770118613,1
3,31,6.4,1381.4849424558263,1
3,32,12.8,1151.189320343652,1
3,33,12.8,1172.6723936381252,1
3,34,12.8,1207.3260179942085,1
3,35,12.8,1175.8806690329172,1
3,36,25.6,1064.8111756461458,1
3,37,6.4,1381.2466746665746,1
3,38,6.4,1420.2262161581305,1
3,39,3.2,1568.1416311280489,1
3,40,25.6,988.858228556642,1
3,41,12.8,1301.610454450552,1
3,42,6.4,1392.1923308507037,1
3,43,25.6,1034.953875313704,1
3,44,3.2,1529.4321834841978,0
3,45,25.6,1018.361105382501,1
3,46,6.4,1480.300330654406,1
3,47,12.8,1185.707210614235,1
3,48,12.8,1058.8749098385151,1
3,49,25.6,878.7600089485261,1
3,50,12.8,1216.5168181868426,0
3,51,25.6,1015.4318548514461,1
3,52,12.8,1242.271106143121,1
3,53,25.6,1064.8911721894326,1
3,54,12.8,1187.93897048431,1
3,55,12.8,1177.7170240233484,1
3,56,6.4,1394.3704343635552,1
3,57,3.2,1396.6388535172061,1
3,58,25.6,918.9719353819203,1
3,59,12.8,1145.6840818046574,0
3,60,6.4,1415.4502061515745,1
3,61,25.6,1075.8817386127423,1
3,62,3.2,1555.7219250272387,1
3,63,3.2,1510.9829195209352,0
3,64,3.2,1408.591418624475,1
3,65,6.4,1384.3447125837542,0
3,66,12.8,1172.7272303125394,0
3,67,12.8,1192.7215044003453,1
3,68,3.2,1524.6538531943195,1
3,69,3.2,1512.8268693768307,1
3,70,6.4,1376.1865468251028,1
3,71,25.6,1003.4057051819569,1
3,72,6.4,1391.2195242210237,1
3,73,25.6,918.971623188751,1
3,74,12.8,1235.1563905678229,0
3,75,6.4,1467.4987570378858,1
3,76,25.6,966.1689429785379,0
3,77,3.2,1484.2132434355499,0
3,78,6.4,1368.6378963239615,1
3,79,3.2,1613.8975208494358,0
3,80,25.6,949.9590865170502,1
3,81,6.4,1380.697462785354,0
3,82,25.6,918.4075288002091,1
3,83,3.2,1483.5353151065833,1
3,84,3.2,1423.364649416144,1
3,85,6.4,1342.377975948051,1
3,86,12.8,1149.6315211900835,1
3,87,6.4,1531.1909570870205,1
3,88,6.4,1384.9615795363814,1
3,89,6.4,1482.3320957045778,1
3,90,12.8,1145.3266624621415,1
3,91,6.4,1367.1198206903764,1
3,92,6.4,1504.9510366516495,0
3,93,3.2,1503.3639203592945,1
3,94,12.8,1267.8094875518914,1
3,95,3.2,1428.3832318781997,1
3,96,6.4,1364.2793297667906,1
3,97,25.6,1025.386216324026,1
3,98,3.2,1488.0613203475737,1
3,99,25.6,953.8544676517686,1
3,100,25.6,983.987217461021,1
3,101,12.8,1162.9822238787192,1
3,102,12.8,1206.4400532784555,1
3,103,3.2,1404.7324538953815,1
3,104,25.6,1004.5831217824598,1
3,105,3.2,1499.0900425363218,1
3,106,25.6,1009.4370228982816,0
3,107,6.4,1464.4547747604418,1
3,108,6.4,1382.215918605113,1
3,109,25.6,925.3128460342322,0
3,110,25.6,999.7041698429109,1
3,111,3.2,1603.2180632476482,1
3,112,3.2,1489.112723807829,0
3,113,3.2,1514.2625370666642,1
3,114,25.6,1006.6967675522333,1
3,115,6.4,1404.3621110263514,1
3,116,12.8,1085.8606990141714,1
3,117,12.8,1221.364404295867,1
3,118,6.4,1371.1515922004633,1
3,119,25.6,1055.4088981928005,1
3,120,12.8,1228.7534676150312,1
3,121,12.8,1113.2974390164572,1
3,122,6.4,1354.4949797459233,1
3,123,12.8,1267.2758673831552,1
3,124,3.2,1585.3979108069318,1
3,125,6.4,1421.965716191133,1
3,126,25.6,1095.8699722376855,1
3,127,12.8,1212.2474678224,1
3,128,6.4,1414.9492623428375,1
3,129,25.6,1004.9394133145727,1
3,130,25.6,1020.0784332204454,1
3,131,3.2,1409.2071360657446,0
3,132,25.6,967.7337490113584,1
3,133,12.8,1219.3729161489232,1
3,134,3.2,1453.4414487195422,1
3,135,25.6,954.9044378203787,1
3,136,3.2,1570.316716894058,1
3,137,6.4,1393.6195243683105,0
3,138,12.8,1189.7407297119382,1
3,139,25.6,1027.1262176422429,1
3,140,25.6,953.0178203990941,1
3,141,12.8,1240.2673340430056,1
3,142,3.2,1492.1046677892543,0
3,143,12.8,1200.8928252786832,0
3,144,6.4,1377.1019717228403,0
3,145,12.8,1233.3130154712233,1
3,146,3.2,1515.4801444854122,0
3,147,6.4,1354.192369089642,1
3,148,3.2,1575.8279018639503,1
3,149,25.6,1002.9906468810726,1
3,150,25.6,1097.2503379683687,1
3,151,6.4,1327.393655327884,1
3,152,12.8,1223.5766210858333,1
3,153,3.2,1398.6589853714195,1
3,154,12.8,1202.181873551638,1
3,155,6.4,1412.6143082937015,1
3,156,25.6,979.9421173373613,1
3,157,3.2,1494.8022118269016,1
3,158,3.2,1488.3563033955743,1
3,159,25.6,933.492736927305,1
3,160,6.4,1460.2521697010418,1
3,161,25.6,982.9757923135002,1
3,162,25.6,1029.0080094547368,0
3,163,25.6,960.076897371333,1
3,164,6.4,1472.488106847047,1
3,165,12.8,1142.211041402534,1
3,166,12.8,1259.8440008727466,1
3,167,3.2,1528.129874919712,1
3,168,6.4,1321.9403488053513,1
3,169,25.6,1043.2959134758828,1
3,170,12.8,1173.1183032746205,0
3,171,25.6,944.2468610137296,1
3,172,3.2,1415.8869433965187,1
3,173,3.2,1556.6058462456933,1
3,174,3.2,1551.9161963660304,1
3,175,12.8,1261.8632025132483,0
3,176,12.8,1185.7168469077378,0
3,177,6.4,1437.095176547322,1
3,178,12.8,1197.129724566435,1
3,179,6.4,1326.5312615775472,1
3,180,3.2,1533.91377417857,1
3,181,12.8,1190.9373558427649,1
3,182,25.6,1008.439825022608,1
3,183,3.2,1495.7220396039872,0
3,184,12.8,1281.2568294147864,1
3,185,3.2,1488.0529518974047,0
3,186,6.4,1393.5761536521609,1
3,187,25.6,1001.4919910398974,1
3,188,25.6,1093.2184946853047,1
3,189,12.8,1243.9797665227345,1
3,190,12.8,1218.8721659513794,1
3,191,25.6,995.9038998322764,1
3,192,6.4,1428.560729446866,1
3,193,6.4,1417.2491548888515,1
3,194,6.4,1388.5320109275413,1
3,195,25.6,1010.0059652718534,1
3,196,6.4,1403.8987003010627,0
3,197,25.6,1050.532962432753,1
3,198,6.4,1504.7784247534398,1
3,199,12.8,1223.979340712331,1
3,200,3.2,1534.6601235204214,1
4,1,3.2,1449.022640425094,1
4,2,3.2,1484.7058889150371,1
4,3,12.8,1151.9618730707398,1
4,4,25.6,915.2653044381395,1
4,5,3.2,1407.5950962517447,1
4,6,3.2,1378.65431313572,0
4,7,12.8,1224.0496956005293,1
4,8,6.4,1457.0280343016861,1
4,9,12.8,1248.4444200437113,1
4,10,25.6,947.9997872797427,1
4,11,25.6,983.3938494788202,1
4,12,25.6,1030.1067191730535,1
4,13,3.2,1504.4359830873475,1
4,14,3.2,1468.288419959245,1
4,15,3.2,1534.9734678407501,1
4,16,25.6,1070.7573311287676,1
4,17,25.6,1071.8142000413147,1
4,18,6.4,1370.1664782587775,1
4,19,6.4,1395.696582485819,1
4,20,12.8,1245.670848067196,1
4,21,6.4,1465.3754989260026,1
4,22,12.8,1229.9478112925763,1
4,23,12.8,1229.4402646585393,1
4,24,25.6,986.1282364495632,0
4,25,3.2,1541.6486413284556,1
4,26,25.6,991.0763366849552,1
4,27,12.8,1139.4995539110594,1
4,28,3.2,1421.2800479098341,0
4,29,12.8,1222.6396814193035,1
4,30,25.6,983.6849810335873,1
4,31,25.6,956.11867047333,1
4,32,6.4,1340.8448533055862,1
4,33,25.6,1016.6356714929041,1
4,34,3.2,1601.035076575777,1
4,35,6.4,1448.3058596933388,1
4,36,25.6,1020.9699628707531,1
4,37,25.6,953.1431140272264,1
4,38,3.2,1509.6033172812406,1
4,39,12.8,1161.124991497061,1
4,40,25.6,945.1707112882601,1
4,41,12.8,1238.2748801232663,1
4,42,25.6,887.1623121819956,1
4,43,12.8,1153.2771717514267,1
4,44,6.4,1280.7793020454617,1
4,45,12.8,1088.6862394032169,1
4,46,12.8,1107.965474020967,1
4,47,25.6,935.6546875835016,1
4,48,6.4,1425.8351951165773,0
4,49,3.2,1515.443854068442,1
4,50,25.6,1049.6485731700013,1
4,51,6.4,1393.1827667770494,1
4,52,25.6,1101.150140963193,1
4,53,3.2,1426.5687543236738,1
4,54,6.4,1494.374935010631,0
4,55,25.6,993.2084234294913,1
4,56,3.2,1520.1219342839292,1
4,57,3.2,1446.4608647732161,1
4,58,6.4,1457.5353033076906,1
4,59,6.4,1394.3141596627522,1
4,60,6.4,1410.5975201004499,1
4,61,3.2,1445.5463367495838,1
4,62,6.4,1459.7687349480732,1
4,63,6.4,1360.9562646902743,0
4,64,25.6,1013.7269929524201,1
4,65,12.8,1320.8414136724882,1
4,66,25.6,970.392900393155,1
4,67,12.8,1139.9529395323477,1
4,68,12.8,1224.2499873086947,1
4,69,12.8,1169.303747385802,1
4,70,6.4,1381.9974143220527,0
4,71,12.8,1225.8460284507335,1
4,72,25.6,966.2836360311937,1
4,73,6.4,1422.2280993104573,1
4,74,25.6,973.8596008754839,1
4,75,3.2,1486.4936203723043,1
4,76,25.6,1021.5345758841727,0
4,77,3.2,1553.0133678401905,0
4,78,12.8,1193.038646620359,1
4,79,25.6,1019.2994926223812,1
4,80,12.8,1161.1228329480255,1
4,81,25.6,902.5680882399242,1
4,82,25.6,1018.0843976468907,1
4,83,3.2,1545.9310531247286,1
4,84,25.6,968.6271943844557,1
4,85,6.4,1381.6103174769205,1
4,86,3.2,1534.2497242857003,1
4,87,25.6,1044.0666410929164,1
4,88,12.8,1242.7599621081636,1
4,89,6.4,1350.6078321322836,1
4,90,3.2,1488.7823557343509,1
4,91,6.4,1307.036372225873,1
4,92,12.8,1199.4772129128323,1
4,93,3.2,1479.665669528298,0
4,94,6.4,1351.136268935374,1
4,95,25.6,984.2749150990044,1
4,96,3.2,1530.787927719435,0
4,97,12.8,1293.2241794857828,0
4,98,25.6,953.1783905333116,1
4,99,6.4,1372.8244932657476,1
4,100,25.6,919.1443594965349,1
4,101,25.6,1029.2587035115232,1
4,102,25.6,1106.1796596436989,1
4,103,25.6,934.0381976325889,1
4,104,12.8,1189.0421065516432,1
4,105,12.8,1178.6589949218765,1
4,106,12.8,1144.4525737125168,1
4,107,3.2,1527.6077454429137,1
4,108,25.6,990.1285953709643,1
4,109,6.4,1340.0018482493733,1
4,110,25.6,952.2677800956926,1
4,111,12.8,1280.1258186315497,1
4,112,6.4,1372.678767555655,1
4,113,6.4,1391.3830963580626,1
4,114,6.4,1393.5027209192474,1
4,115,12.8,1208.5386881533855,1
4,116,6.4,1373.198857245568,1
4,117,12.8,1143.6955925505456,0
4,118,6.4,1398.0070978681922,1
4,119,25.6,981.1795167119335,1
4,120,12.8,1179.5673316240275,1
4,121,12.8,1177.9394846455973,1
4,122,12.8,1140.933561774013,1
4,123,3.2,1445.0117430863897,1
4,124,12.8,1163.9301308632446,1
4,125,6.4,1382.3493841018915,0
4,126,12.8,1124.651935143352,1
4,127,25.6,940.1965389303984,1
4,128,3.2,1523.49853260238,1
4,129,6.4,1427.4704159733005,1
4,130,3.2,1498.2940728569758,1
4,131,12.8,1236.3552638078481,1
4,132,3.2,1493.3052479700732,1
4,133,25.6,1010.0347899445756,1
4,134,12.8,1214.363115929761,0
4,135,6.4,1426.636015742461,1
4,136,6.4,1446.435271935472,1
4,137,3.2,1501.2124043372596,0
4,138,25.6,1033.3355307539946,1
4,139,12.8,1239.0812710272867,1
4,140,6.4,1444.1092564094918,1
4,141,12.8,1211.168758592516,0
4,142,25.6,1026.9965922759443,1
4,143,6.4,1441.895150133425,1
4,144,12.8,1195.9235923627712,1
4,145,3.2,1552.9209806409249,0
4,146,12.8,1183.7690828523096,1
4,147,25.6,1088.902258556272,0
4,148,12.8,1162.248832836074,0
4,149,25.6,1007.5985797606684,1
4,150,25.6,916.6986751207667,1
4,151,6.4,1387.1411168089378,1
4,152,25.6,973.3119462328802,1
4,153,3.2,1519.7911971202363,1
4,154,6.4,1328.2345195524606,1
4,155,6.4,1397.1787486781266,1
4,156,3.2,1501.635967411312,1
4,157,3.2,1395.1615950664423,1
4,158,6.4,1340.9467933785947,1
4,159,3.2,1602.9727767460345,1
4,160,6.4,1365.4149714474759,1
4,161,6.4,1446.7268549611524,0
4,162,12.8,1211.185455028689,1
4,163,6.4,1399.6218037832846,1
4,164,3.2,1557.2451102750636,1
4,165,12.8,1083.3236990826751,1
4,166,6.4,1376.8264033853711,1
4,167,25.6,1007.214760269342,1
4,168,3.2,1425.9151916209207,1
4,169,25.6,962.9881388780075,1
4,170,6.4,1348.0906506329718,0
4,171,12.8,1193.7400667951283,1
4,172,6.4,1419.1314579433774,1
4,173,25.6,1013.1269090744183,0
4,174,12.8,1173.3188955202124,0
4,175,3.2,1552.2216736398293,1
4,176,3.2,1525.5472252260106,0
4,177,6.4,1427.0801991387648,1
4,178,3.2,1507.375559146457,1
4,179,6.4,1427.7411995258622,1
4,180,6.4,1404.0240471965233,0
4,181,25.6,1134.4501627662194,1
4,182,12.8,1251.692533864858,1
4,183,12.8,1199.880468203735,1
4,184,3.2,1432.5277469238154,0
4,185,6.4,1344.2810390920195,1
4,186,3.2,1484.9029918759484,1
4,187,3.2,1511.6320926177305,1
4,188,25.6,1004.9903582855927,1
4,189,6.4,1367.8878613772802,1
4,190,25.6,1019.0755886644624,1
4,191,3.2,1544.2427326571749,1
4,192,6.4,1384.435888506023,1
4,193,12.8,1181.7753178227797,1
4,194,12.8,1186.3311157297114,1
4,195,12.8,1205.7300864729566,1
4,196,3.2,1535.2521873323603,1
4,197,6.4,1344.8119762967572,0
4,198,3.2,1540.1388510719207,0
4,199,3.2,1448.556298835883,0
4,200,3.2,1538.423212072293,0
5,1,12.8,1240.9463884290994,1
5,2,25.6,1081.2333207997908,1
5,3,6.4,1379.367272604683,1
5,4,6.4,1461.3346507250583,1
5,5,12.8,1222.1264035374604,1
5,6,6.4,1379.7900323457725,1
5,7,3.2,1522.659906882501,1
5,8,25.6,996.6741999910244,1
5,9,6.4,1458.5900559027561,1
5,10,6.4,1375.2972018822572,0
5,11,3.2,1451.246600694326,1
5,12,6.4,1418.1274675519755,1
5,13,12.8,1199.6364925711282,1
5,14,6.4,1430.73435763484,1
5,15,3.2,1494.1577921675091,1
5,16,3.2,1484.309986198703,1
5,17,6.4,1475.110156803981,1
5,18,25.6,1073.7223978516763,1
5,19,25.6,1032.007257451044,1
5,20,6.4,1410.0421652732916,1
5,21,12.8,1231.2309022417858,0
5,22,12.8,1223.097662671412,0
5,23,3.2,1588.096450550531,0
5,24,6.4,1390.5454485335918,0
5,25,12.8,1275.8551598342117,1
5,26,3.2,1502.6817291817977,0
5,27,6.4,1451.1762330110903,1
5,28,25.6,1074.7080966258823,1
5,29,3.2,1566.5910838142718,0
5,30,12.8,1226.0106325947718,1
5,31,3.2,1508.2262660675965,1
5,32,12.8,1208.99083316551,1
5,33,12.8,1206.4193548724909,1
5,34,25.6,968.2151338440078,1
5,35,12.8,1213.412188551979,0
5,36,3.2,1554.0188388622341,1
5,37,6.4,1461.6459171539584,1
5,38,3.2,1455.895087922235,1
5,39,6.4,1400.6141757739842,0
5,40,25.6,939.7638293475216,1
5,41,12.8,1242.1804280683916,1
5,42,12.8,1248.4181133733791,0
5,43,25.6,1008.8826504041897,1
5,44,12.8,1227.2068236754706,1
5,45,3.2,1614.4403047679298,1
5,46,12.8,1280.700153915295,1
5,47,25.6,991.4351203694438,1
5,48,25.6,1045.9841821618961,1
5,49,25.6,992.5042831002797,1
5,50,12.8,1264.9800609062193,1
5,51,3.2,1554.5129766824532,1
5,52,3.2,1449.846612876813,1
5,53,3.2,1490.807441237242,1
5,54,12.8,1271.6972152953463,1
5,55,25.6,979.2971690352755,1
5,56,6.4,1485.851769611338,1
5,57,12.8,1115.9320114418178,1
5,58,3.2,1452.2678870595353,1
5,59,25.6,1003.1928983370943,0
5,60,3.2,1459.1453794572462,0
5,61,6.4,1429.027928046255,1
5,62,6.4,1320.282870991325,1
5,63,6.4,1329.0526394195772,1
5,64,12.8,1279.224351860044,1
5,65,3.2,1561.676533736625,0
5,66,3.2,1533.8829452712712,1
5,67,12.8,1171.495712663758,0
5,68,25.6,966.6346227716454,1
5,69,25.6,964.0072749391736,1
5,70,12.8,1209.604682902159,1
5,71,12.8,1209.548117010025,1
5,72,6.4,1288.2456143297309,1
5,73,3.2,1570.2839992465836,0
5,74,12.8,1249.7719488872133,1
5,75,6.4,1363.7678667413054,1
5,76,12.8,1215.4875721089604,1
5,77,3.2,1514.0834453093507,1
5,78,25.6,974.7603324282939,1
5,79,6.4,1403.6380744765147,1
5,80,3.2,1531.9662601428963,0
5,81,3.2,1434.7603051549468,1
5,82,25.6,1035.3919998601232,1
5,83,6.4,1445.8433397376311,1
5,84,12.8,1281.466608980471,1
5,85,12.8,1224.5347578117044,1
5,86,3.2,1531.9856552871424,1
5,87,3.2,1451.2889128993875,0
5,88,12.8,1164.117253207414,0
5,89,25.6,1017.1612548933817,1
5,90,3.2,1522.832725363221,1
5,91,6.4,1493.5989481404713,0
5,92,25.6,997.0769757830434,0
5,93,12.8,1166.3516785706313,1
5,94,12.8,1282.6353366480134,1
5,95,6.4,1394.874179115322,0
5,96,25.6,1031.1431702839527,1
5,97,25.6,954.6390924051686,1
5,98,12.8,1239.6984970682959,1
5,99,25.6,908.8255537938021,1
5,100,12.8,1143.3857174281877,0
5,101,3.2,1452.4020019613472,0
5,102,6.4,1453.0181572448016,1
5,103,25.6,1033.784489294007,1
5,104,6.4,1427.1515407873694,1
5,105,6.4,1439.4380599550943,1
5,106,12.8,1184.1899899993107,1
5,107,12.8,1183.04523028804,1
5,108,12.8,1269.0265968425067,1
5,109,25.6,1076.822957919457,1
5,110,12.8,1184.4683323854663,1
5,111,12.8,1271.944621692874,1
5,112,25.6,1053.4061399224556,0
5,113,6.4,1358.4827180891964,1
5,114,12.8,1170.3072171353163,1
5,115,12.8,1157.4696427585147,1
5,116,25.6,975.975559495074,0
5,117,3.2,1506.2916518188267,1
5,118,25.6,1023.3267343905028,0
5,119,12.8,1199.666111782125,1
5,120,25.6,958.9067281624846,0
5,121,3.2,1539.6177152217178,1
5,122,25.6,964.9916432752152,1
5,123,6.4,1383.6091144314698,1
5,124,3.2,1456.1176690190348,1
5,125,25.6,1030.4117422869012,1
5,126,25.6,980.9769206760452,1
5,127,12.8,1111.3857304472638,0
5,128,12.8,1184.7323303188023,1
5,129,25.6,992.6169439829612,1
5,130,6.4,1357.3614914831533,1
5,131,25.6,1065.205855206245,0
5,132,6.4,1425.5752591382995,1
5,133,3.2,1476.8585413779276,0
5,134,3.2,1537.477982751687,0
5,135,3.2,1522.7114386661626,1
5,136,6.4,1402.4185696125248,1
5,137,3.2,1500.4125547667275,1
5,138,3.2,1494.219549195741,0
5,139,12.8,1107.9857093947574,1
5,140,12.8,1138.6893795046794,1
5,141,3.2,1469.285290654859,0
5,142,3.2,1484.1691884375166,0
5,143,25.6,954.4027973292689,1
5,144,25.6,1025.5285719555147,1
5,145,3.2,1421.6692549581066,1
5,146,12.8,1315.0380398594239,1
5,147,25.6,1033.8514479565429,1
5,148,12.8,1232.8262771794994,1
5,149,12.8,1230.5175472858004,0
5,150,25.6,1022.1792292294795,1
5,151,3.2,1466.383702537289,1
5,152,3.2,1535.7169255277843,1
5,153,25.6,1115.1120358159944,1
5,154,3.2,1480.0561505404476,1
5,155,3.2,1595.8765141647127,0
5,156,12.8,1199.5567654989256,1
5,157,12.8,1157.6867163532804,1
5,158,6.4,1437.3159535073664,0
5,159,12.8,1236.16071955317,1
5,160,3.2,1468.41183663449,0
5,161,6.4,1331.5360776509144,1
5,162,12.8,1188.6929095147184,1
5,163,6.4,1364.3633497908604,1
5,164,12.8,1187.3197566511801,1
5,165,12.8,1174.3479026044793,0
5,166,3.2,1497.2874498465185,1
5,167,25.6,953.9971978186718,0
5,168,25.6,858.0343915930512,1
5,169,6.4,1409.2489779262314,1
5,170,6.4,1403.2860245391732,1
5,171,3.2,1561.3149913957711,0
5,172,25.6,1050.2838956413825,1
5,173,3.2,1564.1392744527116,1
5,174,6.4,1414.1791019274044,1
5,175,3.2,1470.5364301738484,0
5,176,25.6,1016.683584428214,1
5,177,6.4,1408.1564815327556,1
5,178,6.4,1401.2963205915519,1
5,179,6.4,1333.6439873750383,1
5,180,3.2,1494.356616720238,1
5,181,6.4,1457.2577113747705,0
5,182,25.6,948.1113769136775,1
5,183,3.2,1525.5355416596428,1
5,184,6.4,1454.1037780233141,0
5,185,3.2,1360.324537365028,1
5,186,6.4,1477.059708851607,0
5,187,6.4,1452.9577408308983,1
5,188,3.2,1468.5904502916783,0
5,189,12.8,1160.2345713881712,1
5,190,6.4,1387.4930049518289,1
5,191,12.8,1222.1484734056241,1
5,192,12.8,1301.2160488121972,1
5,193,25.6,965.0062869391656,1
5,194,12.8,1123.136306616593,1
5,195,25.6,970.9976706955908,0
5,196,3.2,1539.198239586424,1
5,197,6.4,1464.795837842185,1
5,198,25.6,1011.0725815229829,1
5,199,25.6,1075.9636940351068,1
5,200,6.4,1438.8559458461928,1
6,1,25.6,1034.954282088264,1
6,2,6.4,1425.15595942511,1
6,3,25.6,973.899375606998,1
6,4,6.4,1446.0722986585104,1
6,5,12.8,1168.4169861134262,1
6,6,25.6,1093.4316919516664,1
6,7,12.8,1264.9863953550087,1
6,8,25.6,1030.479340583948,1
6,9,12.8,1176.9615079838902,0
6,10,12.8,1264.9087116262954,1
6,11,6.4,1357.2887953762863,1
6,12,6.4,1402.6528346842563,1
6,13,25.6,924.2830883188088,1
6,14,6.4,1411.9492255995024,1
6,15,12.8,1293.598400393531,1
6,16,25.6,1013.3956882144159,1
6,17,25.6,932.4681464526885,1
6,18,25.6,1006.0386479907559,1
6,19,3.2,1469.5772149881245,1
6,20,6.4,1398.8384144510862,1
6,21,6.4,1437.5927426638307,0
6,22,3.2,1484.099671921389,0
6,23,25.6,1021.816704101721,1
6,24,25.6,1017.9197030280897,1
6,25,12.8,1176.6858500117935,1
6,26,25.6,1052.161774615392,1
6,27,6.4,1407.1551643015405,1
6,28,6.4,1421.4035150128018,1
6,29,12.8,1204.2114152165157,1
6,30,25.6,1020.1478845089159,1
6,31,6.4,1398.7156037103912,1
6,32,6.4,1446.257653276182,1
6,33,25.6,1025.4183628834212,1
6,34,25.6,962.4775454953779,1
6,35,3.2,1429.2487550028502,1
6,36,3.2,1462.723839681693,1
6,37,25.6,983.2820021688001,1
6,38,3.2,1423.6851160979384,1
6,39,6.4,1416.4657572081114,1
6,40,3.2,1446.4016731715487,1
6,41,3.2,1522.7834752937522,1
6,42,3.2,1479.5936851833685,1
6,43,6.4,1377.5624236568397,1
6,44,6.4,1356.1606483385244,1
6,45,12.8,1208.5434760634569,1
6,46,25.6,936.6676136615737,1
6,47,3.2,1517.541476964728,1
6,48,25.6,901.6054143096333,1
6,49,25.6,1010.4495830176373,1
6,50,6.4,1406.7309884867068,1
6,51,12.8,1170.021697960083,1
6,52,3.2,1477.610979188009,0
6,53,25.6,947.5242261389291,1
6,54,6.4,1447.1488690520468,1
6,55,25.6,1070.5554337011781,1
6,56,6.4,1347.8042849131455,1
6,57,3.2,1509.100667037454,1
6,58,25.6,1029.746458614855,1
6,59,6.4,1454.6727062342068,1
6,60,6.4,1486.1164322381624,1
6,61,6.4,1409.4179314198934,1
6,62,3.2,1502.9649696617766,1
6,63,3.2,1406.4928126431523,1
6,64,12.8,1139.3141371390825,0
6,65,25.6,1063.7261909925733,1
6,66,12.8,1198.0030452903934,0
6,67,25.6,1070.0662021021933,1
6,68,25.6,982.7321706686532,1
6,69,6.4,1440.2343318395065,0
6,70,25.6,981.8264926101795,1
6,71,25.6,968.4391852144375,0
6,72,3.2,1469.440515587175,1
6,73,25.6,1030.8621039749924,1
6,74,3.2,1442.3662505606806,1
6,75,6.4,1398.8581048650788,1
6,76,25.6,1011.085824802585,1
6,77,25.6,1042.8416923505997,1
6,78,25.6,892.0386241805161,1
6,79,6.4,1424.3906024405517,0
6,80,12.8,1192.9735132985957,1
6,81,25.6,1000.1787309555453,1
6,82,12.8,1289.4834423746674,0
6,83,12.8,1211.7665383300612,1
6,84,25.6,1019.0655045994462,1
6,85,6.4,1398.748044264903,0
6,86,25.6,1021.0998226203585,0
6,87,12.8,1222.1757227882158,1
6,88,6.4,1365.0852012425387,1
6,89,25.6,1017.4887630285093,1
6,90,3.2,1448.8203947257302,1
6,91,25.6,979.296366388732,1
6,92,3.2,1520.4334293091736,1
6,93,25.6,956.8596686058812,1
6,94,6.4,1345.4770417972989,0
6,95,3.2,1485.2098285535053,0
6,96,25.6,1037.5531099024415,1
6,97,12.8,1137.9308616698006,1
6,98,25.6,951.7053524123835,1
6,99,12.8,1218.314354524726,1
6,100,25.6,1000.9247600883762,1
6,101,25.6,1106.5651978533292,1
6,102,25.6,934.98416839542,1
6,103,12.8,1255.388105514437,1
6,104,6.4,1445.047856069825,1
6,105,6.4,1432.3911667821806,1
6,106,25.6,893.620950140069,0
6,107,25.6,951.1344082966207,0
6,108,3.2,1472.265431729619,1
6,109,3.2,1489.0133809956988,1
6,110,12.8,1268.3592190761642,1
6,111,12.8,1191.4321963272373,1
6,112,25.6,999.77756827392,1
6,113,25.6,987.0971028543754,1
6,114,12.8,1204.184451201024,1
6,115,3.2,1491.7717683429278,0
6,116,25.6,989.8892995148224,1
6,117,6.4,1453.6254771904585,0
6,118,25.6,962.2503068922168,1
6,119,3.2,1442.8667866573012,1
6,120,12.8,1260.2553273271435,1
6,121,6.4,1359.8747424243634,1
6,122,3.2,1534.8908134495337,0
6,123,25.6,1050.4030325660044,1
6,124,12.8,1151.6052997491886,1
6,125,12.8,1224.344363472063,1
6,126,12.8,1100.7154435208954,0
6,127,12.8,1227.6675456120615,1
6,128,12.8,1192.702600866365,1
6,129,3.2,1514.7575955930135,0
6,130,3.2,1507.4885382785847,1
6,131,25.6,1023.1560114007499,1
6,132,6.4,1425.1264100301435,1
6,133,3.2,1496.5259895951626,1
6,134,6.4,1351.971777428673,1
6,135,6.4,1375.6365405817153,0
6,136,25.6,1058.5905439201256,0
6,137,12.8,1205.9625362891884,1
6,138,12.8,1189.1964013943166,1
6,139,12.8,1215.1237872626366,1
6,140,25.6,1000.0275600415644,1
6,141,6.4,1428.3908863602378,0
6,142,6.4,1452.1481806348338,1
6,143,12.8,1224.5117462259486,1
6,144,25.6,1089.373208489606,1
6,145,6.4,1392.2057552095343,1
6,146,6.4,1413.2470813285304,1
6,147,25.6,916.0894858102737,0
6,148,12.8,1214.6047169481792,1
6,149,25.6,1027.36315450033,1
6,150,25.6,983.7899613938825,1
6,151,6.4,1364.4763546022486,0
6,152,25.6,913.8531726004999,1
6,153,12.8,1150.9607781696952,1
6,154,12.8,1205.5992641950143,1
6,155,12.8,1254.105990147556,1
6,156,6.4,1379.1452180515018,1
6,157,25.6,983.2914812868302,1
6,158,25.6,969.3825436218043,1
6,159,6.4,1478.0218069689693,1
6,160,12.8,1248.3194735365846,0
6,161,3.2,1448.8350086372914,0
6,162,12.8,1174.0634215569767,1
6,163,3.2,1495.7846505238765,1
6,164,3.2,1493.8149353435747,1
6,165,3.2,1509.29118640883,0
6,166,25.6,1033.5094616779807,1
6,167,6.4,1299.6216080440317,0
6,168,12.8,1120.204008285043,1
6,169,25.6,1017.211230540588,1
6,170,6.4,1473.5471857898362,1
6,171,3.2,1424.2399669677259,1
6,172,3.2,1434.6350102288297,1
6,173,25.6,1085.568350836096,1
6,174,3.2,1517.5203293545792,0
6,175,6.4,1438.03242817216,1
6,176,25.6,999.180528761476,1
6,177,3.2,1555.5001482765995,0
6,178,3.2,1457.1037802497112,0
6,179,6.4,1337.4236160608361,1
6,180,25.6,985.7181417369753,1
6,181,3.2,1448.8519759597705,0
6,182,12.8,1131.010180766765,1
6,183,25.6,995.8388789146476,1
6,184,25.6,1020.9981487498858,1
6,185,6.4,1468.1863751716537,0
6,186,3.2,1576.5393676278068,1
6,187,3.2,1552.7903802873984,1
6,188,25.6,1013.9837625459043,0
6,189,25.6,931.0566336967262,1
6,190,3.2,1575.1894599710183,1
6,191,25.6,1085.1285415275916,1
6,192,12.8,1182.5658257377856,1
6,193,25.6,1031.6008894350693,1
6,194,3.2,1472.951510543451,1
6,195,12.8,1137.2818773627994,1
6,196,12.8,1220.7655046752188,1
6,197,6.4,1381.0982590895167,1
6,198,6.4,1401.7824298019964,1
6,199,3.2,1523.9337913103816,1
6,200,3.2,1561.1676251336626,1
7,1,25.6,867.0293612636677,1
7,2,6.4,1103.3551173049314,0
7,3,12.8,1094.6804698258213,1
7,4,6.4,1176.1781801252714,1
7,5,3.2,1174.04997375426,1
7,6,3.2,1203.4122994835527,1
7,7,25.6,796.4609903325961,1
7,8,3.2,1143.297865420272,1
7,9,3.2,1284.418101702288,1
7,10,3.2,1192.4178021874989,1
7,11,6.4,1069.7979231157929,1
7,12,12.8,951.5801124365844,1
7,13,12.8,1056.77283852607,1
7,14,3.2,1306.5452884051447,1
7,15,6.4,1076.8679809358982,1
7,16,12.8,1036.3905826522837,1
7,17,3.2,1216.7918504609545,1
7,18,3.2,1188.1610937486923,1
7,19,25.6,814.3955936079651,1
7,20,3.2,1112.7259871918816,1
7,21,12.8,966.5049533692517,1
7,22,6.4,1018.8939213702815,1
7,23,25.6,779.1442532072189,1
7,24,6.4,1008.1026428155028,1
7,25,6.4,1122.1358409085462,0
7,26,25.6,855.6656051484337,1
7,27,12.8,1022.7996574644369,1
7,28,3.2,1344.2238880580398,1
7,29,3.2,1146.4656708011648,1
7,30,25.6,775.8479368129388,1
7,31,12.8,962.2531241244131,0
7,32,3.2,1245.594450911635,1
7,33,3.2,1198.943001721236,1
7,34,12.8,960.4538074093966,1
7,35,3.2,1158.9158034843717,1
7,36,3.2,1232.546946822074,1
7,37,12.8,1017.1340980063716,1
7,38,6.4,976.833406463925,1
7,39,25.6,707.7902199059023,1
7,40,3.2,1173.680789544797,1
7,41,12.8,1045.6878791390989,1
7,42,25.6,827.5610973184954,1
7,43,25.6,688.5341903336114,1
7,44,12.8,974.0105174359966,1
7,45,12.8,1023.8673916008637,1
7,46,3.2,1131.7049003767484,1
7,47,25.6,817.6770671791696,1
7,48,25.6,731.5219900591387,1
7,49,12.8,994.1485708736224,1
7,50,25.6,732.1401630735159,1
7,51,3.2,1246.6804938304633,1
7,52,3.2,1209.0538622600443,1
7,53,6.4,1069.2775973768871,1
7,54,3.2,1136.717263487436,1
7,55,3.2,1207.0179054056532,1
7,56,6.4,1123.9733087680459,1
7,57,25.6,854.2615689644863,1
7,58,12.8,967.8933415027432,1
7,59,3.2,1193.4091391513325,1
7,60,12.8,954.1642596757965,1
7,61,25.6,805.6665108498611,1
7,62,12.8,920.9723868767815,1
7,63,12.8,1020.4153926821964,1
7,64,3.2,1258.29016883274,1
7,65,3.2,1152.5344781385343,1
7,66,25.6,827.4221251375383,1
7,67,12.8,891.6393987941312,0
7,68,3.2,1226.918775523643,1
7,69,6.4,1110.6534493983404,1
7,70,25.6,744.8099769844473,1
7,71,12.8,1029.397923356187,1
7,72,6.4,1138.1116183101672,1
7,73,25.6,875.2650941030332,1
7,74,3.2,1194.0023806254515,1
7,75,12.8,917.5299774334042,1
7,76,12.8,981.7907585869442,1
7,77,6.4,1055.8683462910994,1
7,78,25.6,805.8518551537367,1
7,79,12.8,971.603725961612,1
7,80,6.4,1195.6636398751505,1
7,81,12.8,1073.323656809103,1
7,82,25.6,805.2559949225583,1
7,83,6.4,1114.6973664945003,1
7,84,12.8,1069.9084032054354,1
7,85,12.8,891.1678581679719,1
7,86,12.8,897.6214865523473,1
7,87,6.4,1082.1375117999455,1
7,88,25.6,737.6202390264702,1
7,89,25.6,701.6354575428453,1
7,90,6.4,1134.749591414543,1
7,91,3.2,1202.2616842627565,1
7,92,25.6,851.1121313249486,1
7,93,6.4,1119.4797098723989,1
7,94,3.2,1247.5578853122386,1
7,95,12.8,951.4797655283312,1
7,96,6.4,1115.015646796515,1
7,97,25.6,870.7649827666647,1
7,98,6.4,1009.6162272470698,1
7,99,3.2,1195.0520863078264,1
7,100,6.4,1158.0424839874754,1
7,101,3.2,1223.6949038415771,1
7,102,12.8,1037.8733476508824,1
7,103,25.6,885.444692854495,1
7,104,6.4,1090.2069736756923,0
7,105,6.4,1043.1066613225555,1
7,106,3.2,1179.8767298707373,1
7,107,6.4,1071.4441336600978,1
7,108,12.8,941.3575492265204,1
7,109,3.2,1215.627360178163,1
7,110,3.2,1245.5054365757828,1
7,111,3.2,1216.665014077518,1
7,112,6.4,1072.0286355054486,1
7,113,12.8,983.7781763094838,1
7,114,3.2,1153.7394231936617,1
7,115,3.2,1228.6339456587616,1
7,116,25.6,694.6600562474904,1
7,117,3.2,1234.8535477538662,1
7,118,12.8,971.852305360064,1
7,119,6.4,1060.756154247782,0
7,120,6.4,1113.2111077077711,1
7,121,25.6,761.1352728762862,1
7,122,3.2,1216.3084846850586,1
7,123,6.4,1116.8358847739971,1
7,124,3.2,1215.5336799420832,0
7,125,12.8,1089.1867204343157,1
7,126,3.2,1192.7109095607302,1
7,127,3.2,1161.991647361153,1
7,128,25.6,812.1194704493466,0
7,129,6.4,1110.0759061310414,1
7,130,12.8,1002.40370724381,0
7,131,3.2,1200.9229776958769,1
7,132,12.8,964.9689566570911,1
7,133,3.2,1126.5670427484545,1
7,134,25.6,858.4605288341091,1
7,135,3.2,1123.303998315075,1
7,136,3.2,1175.2134211375085,1
7,137,25.6,732.56373156692,1
7,138,6.4,1110.743881865082,1
7,139,3.2,1250.3237820949837,1
7,140,12.8,935.8052201488285,1
7,141,6.4,1199.1340057759849,1
7,142,6.4,1148.9312872823077,1
7,143,6.4,1050.332828189501,1
7,144,6.4,1103.032274337393,1
7,145,3.2,1196.6950918748985,1
7,146,25.6,886.9663904883363,1
7,147,25.6,864.1594157504785,1
7,148,6.4,1044.5486979257626,1
7,149,25.6,789.0225171297607,1
7,150,6.4,1080.7918077254303,1
7,151,6.4,1034.4414023216266,1
7,152,25.6,757.7902971856453,1
7,153,3.2,1115.7628292437075,1
7,154,25.6,842.6951558987715,1
7,155,12.8,989.9056493376146,1
7,156,6.4,1192.9481588542703,1
7,157,3.2,1262.8756597460351,1
7,158,6.4,1099.9223294132823,1
7,159,3.2,1187.9864182329284,0
7,160,25.6,817.1762223648321,1
7,161,6.4,1149.4467200026152,0
7,162,3.2,1170.1419601427867,1
7,163,6.4,1072.5674100802855,1
7,164,12.8,955.1453315436248,0
7,165,12.8,1039.7275291773235,1
7,166,12.8,974.0620128370286,1
7,167,25.6,825.8054209145278,0
7,168,3.2,1178.070388485542,0
7,169,12.8,1043.1039191865143,1
7,170,6.4,1079.1944735186935,1
7,171,3.2,1171.9248794461898,1
7,172,25.6,714.9626964719586,1
7,173,3.2,1220.047742178742,1
7,174,6.4,1092.5317385305834,1
7,175,3.2,1141.1015718578676,1
7,176,25.6,747.8129825319105,1
7,177,25.6,731.8377038401243,1
7,178,3.2,1262.9994824866576,1
7,179,3.2,1257.5182338364145,1
7,180,25.6,866.0331255148055,1
7,181,12.8,973.3785283048275,0
7,182,3.2,1257.3313858489091,0
7,183,3.2,1193.381270821135,1
7,184,12.8,951.5231001615359,1
7,185,6.4,1151.8188535899678,1
7,186,25.6,689.698068142912,1
7,187,25.6,795.0805267402418,0
7,188,12.8,868.8861065998575,1
7,189,6.4,1169.5597779589307,0
7,190,25.6,780.460920692353,1
7,191,25.6,835.5512043545266,1
7,192,25.6,787.8131888130389,1
7,193,12.8,1043.4410790851093,1
7,194,12.8,1033.016303428448,1
7,195,3.2,1207.491789378488,0
7,196,3.2,1186.6442880511822,1
7,197,25.6,826.7544791409757,1
7,198,3.2,1244.9583192165048,1
7,199,3.2,1200.8211987176667,1
7,200,25.6,778.9237358234224,1
8,1,6.4,1107.6315348465919,1
8,2,25.6,889.0095460533648,1
8,3,12.8,987.385670869317,1
8,4,3.2,1251.0497913535253,0
8,5,3.2,1294.8596376577966,1
8,6,12.8,1011.2844938567556,1
8,7,3.2,1177.2401324063287,1
8,8,3.2,1191.3843670377369,1
8,9,3.2,1292.617931367391,1
8,10,25.6,739.8734759127315,1
8,11,3.2,1193.387109790894,1
8,12,25.6,829.832671601608,1
8,13,3.2,1141.2721407918964,0
8,14,12.8,1025.3187825377636,1
8,15,12.8,1000.2294317791742,1
8,16,6.4,1121.6240499646128,0
8,17,3.2,1161.881428991384,1
8,18,6.4,1041.2383091466652,1
8,19,3.2,1302.2144677632991,1
8,20,3.2,1165.5227222357316,1
8,21,3.2,1337.0221443419402,1
8,22,3.2,1262.7539085678643,1
8,23,25.6,776.9771179379327,1
8,24,6.4,1073.0081094422733,1
8,25,25.6,752.2742631795329,1
8,26,3.2,1230.3586411786368,1
8,27,6.4,1068.8441851520106,1
8,28,12.8,961.2356847220751,1
8,29,12.8,1003.6317057441565,1
8,30,6.4,1061.7826159732467,1
8,31,12.8,977.7075091759415,1
8,32,12.8,1005.1802530161823,1
8,33,12.8,1045.752478178249,0
8,34,12.8,982.508242685984,1
8,35,3.2,1209.8612615333666,1
8,36,12.8,975.8894748995326,1
8,37,12.8,1095.2543297537054,1
8,38,6.4,1050.3861038160364,1
8,39,12.8,1059.3667769445922,1
8,40,3.2,1257.1878407745598,0
8,41,3.2,1210.6857675635351,1
8,42,3.2,1080.0015121084568,1
8,43,3.2,1169.24076330924,1
8,44,6.4,1073.2669667055868,1
8,45,12.8,1055.7181079385969,1
8,46,6.4,1043.6219710720661,1
8,47,12.8,1065.4085781840934,1
8,48,12.8,1020.338141053223,1
8,49,6.4,1159.2462470126006,1
8,50,25.6,732.4128618908661,1
8,51,12.8,1076.0366539530687,1
8,52,25.6,691.1611640300737,1
8,53,25.6,805.377817181632,1
8,54,3.2,1201.8930327560788,1
8,55,25.6,654.142197116378,1
8,56,12.8,1049.286807547517,1
8,57,25.6,756.1520516883222,1
8,58,12.8,992.5645919742184,1
8,59,25.6,719.1374853342397,1
8,60,6.4,1115.3132480302677,1
8,61,12.8,953.1454202730255,1
8,62,6.4,1095.000334354139,1
8,63,6.4,1154.9236526940085,1
8,64,12.8,1064.693774687513,1
8,65,6.4,1117.639107824847,1
8,66,3.2,1242.7763116141593,1
8,67,6.4,1129.6995465468256,0
8,68,6.4,1102.15644000727,1
8,69,3.2,1192.516615185854,1
8,70,3.2,1132.7660019208402,1
8,71,3.2,1226.7925249607167,1
8,72,12.8,1040.9343846621696,1
8,73,3.2,1157.1917446896728,1
8,74,3.2,1239.5675750780126,1
8,75,6.4,1144.7664682580394,1
8,76,12.8,1005.7598757469589,0
8,77,3.2,1239.8388391014682,1
8,78,25.6,782.2532230666496,1
8,79,12.8,901.5336554323624,1
8,80,25.6,759.6088041875491,0
8,81,6.4,1138.7881752754704,1
8,82,3.2,1150.4639626105666,1
8,83,3.2,1232.450282976508,1
8,84,12.8,978.6550193944507,1
8,85,6.4,1054.3734376348928,1
8,86,6.4,1131.9648731610514,1
8,87,12.8,1038.7624639079754,1
8,88,6.4,1011.7457443442142,1
8,89,12.8,1036.243734686259,1
8,90,3.2,1189.2015671408944,1
8,91,6.4,1113.9895913773407,1
8,92,25.6,767.5182063861075,1
8,93,6.4,1057.8232237512182,1
8,94,3.2,1178.4287828880897,1
8,95,6.4,1097.2354761989793,1
8,96,12.8,917.7228116020557,1
8,97,25.6,789.4627298985148,1
8,98,12.8,1000.9194197629557,1
8,99,3.2,1216.072888475656,1
8,100,6.4,1079.534598726198,1
8,101,25.6,798.3118712528545,1
8,102,3.2,1187.7393462332673,1
8,103,6.4,1082.3643678227043,0
8,104,25.6,697.8296851299606,1
8,105,6.4,1129.8817367915476,1
8,106,6.4,969.6140895728446,1
8,107,25.6,803.8246624354409,1
8,108,25.6,788.9429506136335,1
8,109,12.8,982.350824162652,1
8,110,3.2,1203.1753530885924,1
8,111,12.8,1045.3744606023135,1
8,112,12.8,948.5592929128877,0
8,113,12.8,954.3964056726005,1
8,114,3.2,1219.873731585907,1
8,115,12.8,984.5058821496867,0
8,116,12.8,983.9389124785213,0
8,117,12.8,978.1603079376064,1
8,118,12.8,1032.8452888655336,1
8,119,6.4,1021.1067645361138,1
8,120,3.2,1139.3552403445894,1
8,121,12.8,1048.571373920077,1
8,122,25.6,854.3544661811326,1
8,123,3.2,1187.6343530964402,1
8,124,25.6,813.4643409872735,1
8,125,6.4,1089.9569934554688,1
8,126,12.8,969.121953843249,1
8,127,25.6,777.1979800901079,1
8,128,3.2,1211.4259753197487,1
8,129,3.2,1173.9230442474602,1
8,130,3.2,1240.0513934406456,1
8,131,12.8,968.9704360439839,1
8,132,12.8,1022.3090330116478,1
8,133,12.8,1055.5768511600124,1
8,134,3.2,1094.640025989256,1
8,135,6.4,1155.284468577607,1
8,136,3.2,1253.8720796064144,1
8,137,12.8,956.1744105033363,0
8,138,3.2,1255.6222242967544,1
8,139,25.6,888.8828113131001,1
8,140,25.6,788.1084695022294,1
8,141,3.2,1182.1066847512234,0
8,142,25.6,798.7382715922989,1
8,143,3.2,1218.1860148006272,1
8,144,12.8,929.6061285326336,1
8,145,3.2,1152.6260921880942,1
8,146,12.8,1071.0592164741581,1
8,147,12.8,940.8125421362561,1
8,148,12.8,953.4358988207734,1
8,149,12.8,1042.009006319847,1
8,150,12.8,849.9063056435177,1
8,151,25.6,948.0998744730543,1
8,152,6.4,1053.4017981211523,1
8,153,12.8,1097.1154764506816,1
8,154,25.6,826.5405231409911,1
8,155,6.4,1130.8317119414319,1
8,156,25.6,761.1688300983473,1
8,157,25.6,772.9764803809699,1
8,158,6.4,1032.598602134589,1
8,159,12.8,1036.2542693032135,1
8,160,25.6,817.2849251830677,1
8,161,3.2,1242.2067816780834,1
8,162,12.8,997.5035590309775,1
8,163,3.2,1209.9406815804252,1
8,164,6.4,973.5689853009324,1
8,165,25.6,896.275748318752,1
8,166,12.8,1075.6265492678276,1
8,167,6.4,1147.505394282568,1
8,168,25.6,759.6306605585927,1
8,169,6.4,1187.878297460952,1
8,170,25.6,828.9919852592187,1
8,171,25.6,759.9338662601751,1
8,172,25.6,797.5577782360566,1
8,173,6.4,1163.9017764582109,1
8,174,3.2,1215.0132202735479,1
8,175,12.8,912.0908086526301,1
8,176,12.8,912.5321392037022,1
8,177,12.8,898.8108324711519,1
8,178,12.8,996.6880712786307,1
8,179,3.2,1227.8134043285331,1
8,180,3.2,1197.6018380059875,1
8,181,25.6,728.9391393987183,1
8,182,25.6,840.6195933129816,0
8,183,6.4,1054.0514518388459,1
8,184,3.2,1210.4380099154562,1
8,185,3.2,1202.1619818879635,1
8,186,25.6,808.5192326450342,1
8,187,6.4,1070.601445151495,1
8,188,25.6,820.0531119559955,1
8,189,6.4,1102.6974991224286,1
8,190,3.2,1184.3504065462207,1
8,191,25.6,819.9048049421131,1
8,192,6.4,1080.3356102918858,0
8,193,3.2,1220.6222170220217,1
8,194,3.2,1248.5010608524128,1
8,195,6.4,1042.2023258895497,1
8,196,12.8,918.6128912341655,1
8,197,25.6,799.7267648642216,1
8,198,3.2,1163.7584813061014,0
8,199,6.4,1098.4195286187733,0
8,200,6.4,1089.556246724437,1
